acceleration_x,acceleration_y,acceleration_z,gyroscope_x,gyroscope_y,gyroscope_z,timestamp,label
2700,-324,18868,-168,184,-174,2024-01-18 09:34:09,0.0
2724,-264,18988,-163,182,-200,2024-01-18 09:34:09,0.0
2776,-252,18868,-174,199,-182,2024-01-18 09:34:09,0.0
2640,-288,19052,-171,195,-183,2024-01-18 09:34:09,0.0
2772,-244,18988,-180,194,-182,2024-01-18 09:34:09,0.0
2816,-292,18920,-180,211,-182,2024-01-18 09:34:09,0.0
2600,-316,18952,-149,207,-176,2024-01-18 09:34:09,0.0
2700,-256,18972,-162,206,-191,2024-01-18 09:34:09,0.0
2712,-268,18968,-164,190,-180,2024-01-18 09:34:09,0.0
2688,-256,19044,-183,212,-198,2024-01-18 09:34:09,0.0
2768,-340,18836,-184,177,-180,2024-01-18 09:34:09,0.0
2716,-216,19024,-172,205,-189,2024-01-18 09:34:09,0.0
2704,-308,18956,-165,192,-167,2024-01-18 09:34:09,0.0
2768,-264,19040,-166,195,-174,2024-01-18 09:34:09,0.0
2744,-252,18976,-179,202,-171,2024-01-18 09:34:09,0.0
2712,-272,18884,-156,169,-165,2024-01-18 09:34:09,0.0
2808,-224,18904,-164,209,-188,2024-01-18 09:34:09,0.0
2704,-324,18888,-170,169,-184,2024-01-18 09:34:10,0.0
2776,-216,18904,-157,190,-186,2024-01-18 09:34:10,0.0
2752,-292,18928,-168,190,-165,2024-01-18 09:34:10,0.0
2748,-300,18972,-179,204,-179,2024-01-18 09:34:10,0.0
2728,-312,18940,-155,204,-187,2024-01-18 09:34:10,0.0
2736,-228,18916,-164,198,-186,2024-01-18 09:34:10,0.0
2688,-188,19068,-159,197,-187,2024-01-18 09:34:10,0.0
2688,-196,19124,-174,180,-203,2024-01-18 09:34:10,0.0
2756,-280,19064,-158,193,-170,2024-01-18 09:34:10,0.0
2724,-312,19100,-193,177,-196,2024-01-18 09:34:10,0.0
2756,-256,18828,-160,202,-170,2024-01-18 09:34:10,0.0
2720,-304,18836,-171,190,-171,2024-01-18 09:34:10,0.0
2780,-348,18928,-169,195,-200,2024-01-18 09:34:10,0.0
2752,-220,18932,-174,178,-175,2024-01-18 09:34:10,0.0
2700,-284,19044,-171,186,-205,2024-01-18 09:34:10,0.0
2716,-248,18848,-154,181,-190,2024-01-18 09:34:10,0.0
2792,-296,19132,-183,189,-191,2024-01-18 09:34:10,0.0
2752,-396,19040,-162,189,-181,2024-01-18 09:34:10,0.0
2700,-364,18936,-173,189,-195,2024-01-18 09:34:10,0.0
2736,-340,19092,-178,199,-190,2024-01-18 09:34:10,0.0
2696,-304,19048,-166,192,-175,2024-01-18 09:34:10,0.0
2744,-228,18888,-173,199,-177,2024-01-18 09:34:10,0.0
2724,-216,18900,-167,195,-194,2024-01-18 09:34:10,0.0
2724,-232,18936,-163,195,-199,2024-01-18 09:34:10,0.0
2708,-328,18944,-164,185,-182,2024-01-18 09:34:10,0.0
2704,-268,18896,-189,174,-180,2024-01-18 09:34:10,0.0
2680,-292,19020,-181,175,-198,2024-01-18 09:34:10,0.0
2664,-244,18932,-176,210,-193,2024-01-18 09:34:10,0.0
2712,-200,18932,-156,191,-188,2024-01-18 09:34:10,0.0
2764,-128,18940,-157,171,-179,2024-01-18 09:34:10,0.0
2736,-260,18932,-167,191,-180,2024-01-18 09:34:10,0.0
2664,-256,18972,-182,184,-199,2024-01-18 09:34:10,0.0
2748,-304,18948,-147,189,-176,2024-01-18 09:34:10,0.0
2820,-312,18956,-158,196,-177,2024-01-18 09:34:10,0.0
2776,-256,18908,-142,176,-198,2024-01-18 09:34:10,0.0
2680,-256,18876,-189,184,-171,2024-01-18 09:34:10,0.0
2728,-276,19008,-148,174,-185,2024-01-18 09:34:10,0.0
2704,-284,18956,-176,201,-180,2024-01-18 09:34:10,0.0
2800,-376,18924,-157,197,-165,2024-01-18 09:34:10,0.0
2700,-312,19028,-165,185,-187,2024-01-18 09:34:10,0.0
2748,-288,18960,-179,206,-204,2024-01-18 09:34:10,0.0
2704,-260,19016,-169,197,-181,2024-01-18 09:34:10,0.0
2716,-348,18928,-164,191,-206,2024-01-18 09:34:10,0.0
2716,-308,18988,-169,178,-211,2024-01-18 09:34:10,0.0
2704,-196,18748,-138,202,-170,2024-01-18 09:34:10,0.0
2624,-244,18992,-174,180,-159,2024-01-18 09:34:10,0.0
2792,-232,18884,-167,194,-188,2024-01-18 09:34:10,0.0
2740,-288,18928,-178,181,-198,2024-01-18 09:34:10,0.0
2728,-392,19000,-166,199,-179,2024-01-18 09:34:10,0.0
2824,-280,18904,-174,207,-188,2024-01-18 09:34:10,0.0
2784,-256,18804,-181,196,-169,2024-01-18 09:34:10,0.0
2748,-296,19000,-168,186,-186,2024-01-18 09:34:10,0.0
2780,-228,19088,-175,180,-174,2024-01-18 09:34:10,0.0
2808,-332,19008,-178,191,-173,2024-01-18 09:34:10,0.0
2844,-320,18900,-181,191,-175,2024-01-18 09:34:10,0.0
2704,-328,18964,-188,199,-182,2024-01-18 09:34:10,0.0
2764,-308,19032,-186,192,-177,2024-01-18 09:34:10,0.0
2704,-256,18996,-164,194,-170,2024-01-18 09:34:10,0.0
2708,-316,18984,-175,181,-183,2024-01-18 09:34:10,0.0
2732,-256,18968,-189,204,-184,2024-01-18 09:34:11,0.0
2748,-344,19096,-169,195,-182,2024-01-18 09:34:11,0.0
2708,-408,19064,-160,183,-204,2024-01-18 09:34:11,0.0
2768,-288,19000,-159,192,-190,2024-01-18 09:34:11,0.0
2628,-216,19004,-165,193,-197,2024-01-18 09:34:11,0.0
2744,-336,18888,-160,185,-186,2024-01-18 09:34:11,0.0
2692,-228,19008,-178,204,-171,2024-01-18 09:34:11,0.0
2644,-280,18948,-169,186,-161,2024-01-18 09:34:11,0.0
2728,-296,19020,-165,172,-197,2024-01-18 09:34:11,0.0
2732,-332,18964,-170,168,-178,2024-01-18 09:34:11,0.0
2776,-236,18988,-171,200,-191,2024-01-18 09:34:11,0.0
2760,-372,18976,-191,186,-188,2024-01-18 09:34:11,0.0
2724,-340,18892,-172,183,-182,2024-01-18 09:34:11,0.0
2796,-248,19088,-175,189,-175,2024-01-18 09:34:11,0.0
2764,-288,18924,-174,202,-186,2024-01-18 09:34:11,0.0
2620,-340,19040,-186,187,-206,2024-01-18 09:34:11,0.0
2720,-376,19016,-159,215,-180,2024-01-18 09:34:11,0.0
2840,-212,18936,-184,177,-194,2024-01-18 09:34:11,0.0
2728,-276,18812,-163,173,-188,2024-01-18 09:34:11,0.0
2804,-196,19072,-167,192,-189,2024-01-18 09:34:11,0.0
2696,-344,18972,-136,205,-167,2024-01-18 09:34:11,0.0
2640,-212,18928,-160,219,-185,2024-01-18 09:34:11,0.0
2644,-340,18956,-167,181,-159,2024-01-18 09:34:11,0.0
2708,-352,19032,-169,195,-190,2024-01-18 09:34:11,
2732,-304,19108,-166,180,-175,2024-01-18 09:34:11,0.0
2724,-296,19008,-157,207,-182,2024-01-18 09:34:11,0.0
2800,-344,18992,-163,184,-195,2024-01-18 09:34:11,0.0
2756,-268,18944,-157,181,-174,2024-01-18 09:34:11,0.0
2700,-332,18932,-148,196,-178,2024-01-18 09:34:11,0.0
2724,-328,19092,-171,182,-178,2024-01-18 09:34:11,0.0
2760,-256,18968,-140,185,-187,2024-01-18 09:34:11,0.0
2688,-264,18972,-163,171,-189,2024-01-18 09:34:11,0.0
2680,-168,18980,-180,207,-169,2024-01-18 09:34:11,0.0
2764,-416,19012,-152,172,-181,2024-01-18 09:34:11,0.0
2744,-356,18952,-172,196,-149,2024-01-18 09:34:11,0.0
2612,-336,19012,-168,183,-183,2024-01-18 09:34:11,0.0
2720,-336,19036,-159,193,-174,2024-01-18 09:34:11,0.0
2680,-256,18896,-158,175,-191,2024-01-18 09:34:11,0.0
2688,-336,18828,-176,223,-207,2024-01-18 09:34:11,0.0
2728,-244,19064,-173,206,-188,2024-01-18 09:34:11,0.0
2752,-216,19096,-177,199,-179,2024-01-18 09:34:11,0.0
2712,-292,19120,-168,210,-182,2024-01-18 09:34:11,0.0
2848,-336,18928,-193,191,-164,2024-01-18 09:34:11,0.0
2792,-308,18848,-148,204,-178,2024-01-18 09:34:11,0.0
2708,-356,18956,-160,206,-187,2024-01-18 09:34:11,0.0
2732,-320,18984,-172,196,-179,2024-01-18 09:34:11,0.0
2820,-232,18764,-173,179,-165,2024-01-18 09:34:11,0.0
2640,-272,18812,-171,178,-184,2024-01-18 09:34:11,0.0
2752,-300,18944,-185,181,-173,2024-01-18 09:34:11,0.0
2756,-352,18876,-180,198,-179,2024-01-18 09:34:11,0.0
2744,-268,19016,-154,203,-168,2024-01-18 09:34:11,0.0
2680,-292,18964,-167,187,-178,2024-01-18 09:34:11,0.0
2692,-272,18868,-154,202,-202,2024-01-18 09:34:11,0.0
2776,-204,19044,-160,170,-179,2024-01-18 09:34:11,0.0
2756,-292,19116,-167,200,-171,2024-01-18 09:34:11,0.0
2804,-324,19048,-161,176,-187,2024-01-18 09:34:11,0.0
2728,-244,19016,-176,203,-187,2024-01-18 09:34:11,0.0
2692,-240,19016,-184,188,-184,2024-01-18 09:34:11,0.0
2644,-320,18916,-171,179,-178,2024-01-18 09:34:12,0.0
2672,-300,19044,-154,176,-192,2024-01-18 09:34:12,0.0
2724,-288,18936,-182,193,-194,2024-01-18 09:34:12,0.0
2832,-328,18968,-160,212,-173,2024-01-18 09:34:12,0.0
2776,-288,18924,-158,192,-190,2024-01-18 09:34:12,0.0
2792,-312,18940,-180,190,-196,2024-01-18 09:34:12,0.0
2672,-276,18960,-156,190,-192,2024-01-18 09:34:12,0.0
2876,-308,19012,-173,191,-192,2024-01-18 09:34:12,0.0
2692,-216,19008,-158,178,-183,2024-01-18 09:34:12,0.0
2788,-368,19160,-164,193,-196,2024-01-18 09:34:12,0.0
2792,-260,18588,-165,191,-180,2024-01-18 09:34:12,0.0
2728,-156,19080,-191,211,-174,2024-01-18 09:34:12,0.0
2756,-368,19168,-156,158,-196,2024-01-18 09:34:12,0.0
2720,-344,18832,-170,187,-176,2024-01-18 09:34:12,0.0
2644,-344,19040,-167,198,-186,2024-01-18 09:34:12,0.0
2712,-384,19036,-184,218,-174,2024-01-18 09:34:12,0.0
2724,-216,18948,-173,169,-184,2024-01-18 09:34:12,0.0
2760,-260,18760,-162,195,-181,2024-01-18 09:34:12,0.0
2764,-324,18988,-165,209,-201,2024-01-18 09:34:12,0.0
2744,-288,18744,-154,184,-182,2024-01-18 09:34:12,0.0
2680,-204,18972,-172,214,-181,2024-01-18 09:34:12,0.0
2696,-280,19108,-167,172,-194,2024-01-18 09:34:12,0.0
2672,-304,18948,-154,169,-169,2024-01-18 09:34:12,0.0
2796,-256,19008,-162,182,-161,2024-01-18 09:34:12,0.0
2696,-272,19084,-197,190,-190,2024-01-18 09:34:12,0.0
2664,-252,18932,-147,187,-184,2024-01-18 09:34:12,0.0
2836,-284,18956,-188,192,-178,2024-01-18 09:34:12,0.0
2776,-336,18988,-162,184,-215,2024-01-18 09:34:12,0.0
2684,-284,18932,-164,182,-194,2024-01-18 09:34:12,0.0
2728,-304,18984,-197,209,-210,2024-01-18 09:34:12,0.0
2868,-280,18952,-181,169,-203,2024-01-18 09:34:12,0.0
2724,-212,19032,-165,184,-181,2024-01-18 09:34:12,0.0
2764,-296,19048,-169,188,-182,2024-01-18 09:34:12,0.0
2800,-328,19000,-168,203,-192,2024-01-18 09:34:12,0.0
2748,-228,18956,-185,190,-178,2024-01-18 09:34:12,0.0
2644,-268,18944,-187,203,-174,2024-01-18 09:34:12,0.0
2640,-304,18904,-169,177,-160,2024-01-18 09:34:12,0.0
2760,-208,18932,-167,196,-174,2024-01-18 09:34:12,0.0
2744,-332,19044,-164,196,-167,2024-01-18 09:34:12,0.0
2736,-208,18972,-191,193,-170,2024-01-18 09:34:12,0.0
2812,-244,18920,-150,194,-193,2024-01-18 09:34:12,0.0
2696,-352,19056,-169,180,-168,2024-01-18 09:34:12,0.0
2752,-328,19008,-165,168,-166,2024-01-18 09:34:12,0.0
2792,-360,18828,-167,216,-156,2024-01-18 09:34:12,0.0
2820,-248,18944,-180,199,-188,2024-01-18 09:34:12,0.0
2760,-244,19000,-154,190,-177,2024-01-18 09:34:12,0.0
2720,-384,18924,-166,175,-175,2024-01-18 09:34:12,0.0
2752,-228,19044,-195,204,-194,2024-01-18 09:34:12,0.0
2680,-300,18912,-171,194,-181,2024-01-18 09:34:12,0.0
2704,-260,18956,-160,205,-185,2024-01-18 09:34:12,0.0
2664,-224,18992,-178,198,-164,2024-01-18 09:34:12,0.0
2728,-324,18928,-166,193,-182,2024-01-18 09:34:12,0.0
2764,-308,19008,-199,205,-195,2024-01-18 09:34:12,0.0
2720,-268,18964,-190,167,-179,2024-01-18 09:34:12,0.0
2736,-320,19096,-179,180,-178,2024-01-18 09:34:12,0.0
2752,-340,19016,-183,201,-178,2024-01-18 09:34:12,0.0
2800,-232,18948,-174,176,-177,2024-01-18 09:34:12,0.0
2792,-308,18980,-148,186,-174,2024-01-18 09:34:12,0.0
2784,-324,18976,-164,190,-171,2024-01-18 09:34:12,0.0
2724,-372,19136,-165,196,-165,2024-01-18 09:34:12,0.0
2740,-228,18896,-161,197,-197,2024-01-18 09:34:12,0.0
2748,-240,18984,-171,196,-180,2024-01-18 09:34:12,0.0
2720,-252,18876,-165,211,-203,2024-01-18 09:34:13,0.0
2720,-236,18992,-179,200,-182,2024-01-18 09:34:13,0.0
2700,-284,18952,-142,169,-169,2024-01-18 09:34:13,0.0
2680,-416,19464,-133,173,-203,2024-01-18 09:34:13,
2672,-316,19388,-173,217,-186,2024-01-18 09:34:13,0.0
2732,-376,18896,-170,213,-201,2024-01-18 09:34:13,0.0
2696,-320,19000,-146,180,-189,2024-01-18 09:34:13,0.0
2708,-344,18836,-163,205,-186,2024-01-18 09:34:13,0.0
2716,-336,19032,-176,182,-175,2024-01-18 09:34:13,0.0
2640,-284,19040,-159,207,-180,2024-01-18 09:34:13,0.0
2696,-172,19056,-175,188,-176,2024-01-18 09:34:13,0.0
2776,-332,18872,-185,194,-178,2024-01-18 09:34:13,0.0
2684,-304,19152,-166,218,-201,2024-01-18 09:34:13,0.0
2724,-388,19020,-154,183,-166,2024-01-18 09:34:13,0.0
2672,-248,18896,-180,194,-174,2024-01-18 09:34:13,0.0
2708,-244,19080,-182,202,-184,2024-01-18 09:34:13,0.0
2828,-324,18940,-146,196,-193,2024-01-18 09:34:13,0.0
2676,-268,18976,-182,174,-187,2024-01-18 09:34:13,0.0
2716,-248,18952,-154,186,-192,2024-01-18 09:34:13,0.0
2708,-248,19156,-163,192,-191,2024-01-18 09:34:13,0.0
2636,-324,18960,-172,187,-187,2024-01-18 09:34:13,0.0
2680,-156,18984,-166,181,-198,2024-01-18 09:34:13,0.0
2796,-276,18844,-187,199,-176,2024-01-18 09:34:13,0.0
2752,-300,18912,-176,195,-193,2024-01-18 09:34:13,0.0
2868,-248,18960,-186,173,-174,2024-01-18 09:34:13,0.0
2764,-268,18860,-160,169,-183,2024-01-18 09:34:13,0.0
2688,-276,18908,-164,185,-181,2024-01-18 09:34:13,0.0
2680,-292,18992,-184,177,-179,2024-01-18 09:34:13,0.0
2704,-216,19072,-197,195,-187,2024-01-18 09:34:13,0.0
2772,-268,18932,-161,214,-175,2024-01-18 09:34:13,0.0
2776,-272,18976,-177,159,-172,2024-01-18 09:34:13,0.0
2724,-256,19084,-157,161,-166,2024-01-18 09:34:13,0.0
2576,-380,18976,-173,174,-197,2024-01-18 09:34:13,0.0
2652,-232,19008,-161,187,-181,2024-01-18 09:34:13,0.0
2868,-296,18932,-185,209,-197,2024-01-18 09:34:13,0.0
2728,-308,19012,-167,193,-170,2024-01-18 09:34:13,0.0
2636,-284,19008,-168,195,-169,2024-01-18 09:34:13,0.0
2688,-296,18932,-189,183,-189,2024-01-18 09:34:13,0.0
2664,-228,18996,-154,200,-172,2024-01-18 09:34:13,0.0
2608,-320,18988,-146,204,-199,2024-01-18 09:34:13,0.0
2768,-364,19056,-171,189,-170,2024-01-18 09:34:13,0.0
2740,-236,19032,-152,179,-184,2024-01-18 09:34:13,0.0
2784,-220,18892,-141,182,-192,2024-01-18 09:34:13,0.0
2708,-252,19028,-150,181,-197,2024-01-18 09:34:13,0.0
2696,-228,18988,-188,208,-178,2024-01-18 09:34:13,0.0
2768,-260,18840,-156,173,-181,2024-01-18 09:34:13,0.0
2812,-320,18944,-157,201,-179,2024-01-18 09:34:13,0.0
2816,-268,18928,-179,197,-176,2024-01-18 09:34:13,0.0
2696,-308,19000,-152,184,-188,2024-01-18 09:34:13,0.0
2704,-216,18964,-164,186,-188,2024-01-18 09:34:13,0.0
2756,-288,19060,-167,193,-159,2024-01-18 09:34:13,0.0
2696,-280,18888,-186,199,-190,2024-01-18 09:34:13,0.0
2752,-244,18928,-168,176,-180,2024-01-18 09:34:13,0.0
2696,-296,19056,-189,181,-165,2024-01-18 09:34:13,0.0
2704,-256,18888,-150,204,-160,2024-01-18 09:34:13,0.0
2748,-248,19000,-174,180,-183,2024-01-18 09:34:13,0.0
2688,-256,18836,-162,194,-167,2024-01-18 09:34:13,0.0
2880,-288,18988,-178,191,-189,2024-01-18 09:34:13,0.0
2788,-208,18836,-143,174,-180,2024-01-18 09:34:13,0.0
2796,-296,19036,-161,185,-197,2024-01-18 09:34:13,0.0
2772,-368,18944,-156,180,-187,2024-01-18 09:34:14,0.0
2628,-320,18872,-167,181,-189,2024-01-18 09:34:14,0.0
2652,-264,19100,-191,181,-194,2024-01-18 09:34:14,0.0
2764,-308,18972,-156,179,-189,2024-01-18 09:34:14,0.0
2776,-332,19104,-154,189,-175,2024-01-18 09:34:14,0.0
2804,-388,18988,-181,196,-203,2024-01-18 09:34:14,0.0
2672,-220,18872,-188,178,-188,2024-01-18 09:34:14,0.0
2708,-264,18984,-175,200,-181,2024-01-18 09:34:14,0.0
2760,-208,18924,-167,196,-203,2024-01-18 09:34:14,0.0
2816,-320,18848,-174,201,-188,2024-01-18 09:34:14,0.0
2684,-252,18912,-143,191,-195,2024-01-18 09:34:14,0.0
2752,-268,18980,-165,182,-172,2024-01-18 09:34:14,0.0
2704,-240,19004,-145,211,-181,2024-01-18 09:34:14,0.0
2708,-160,18976,-178,184,-178,2024-01-18 09:34:14,0.0
2744,-356,19072,-187,203,-192,2024-01-18 09:34:14,0.0
2700,-384,18988,-157,185,-183,2024-01-18 09:34:14,0.0
2732,-304,18908,-174,185,-210,2024-01-18 09:34:14,0.0
2728,-292,19000,-163,162,-187,2024-01-18 09:34:14,0.0
2804,-340,19132,-174,209,-181,2024-01-18 09:34:14,0.0
2820,-288,19104,-182,205,-184,2024-01-18 09:34:14,0.0
2716,-352,19016,-150,190,-177,2024-01-18 09:34:14,0.0
2756,-284,19072,-164,204,-206,2024-01-18 09:34:14,0.0
2728,-348,18984,-191,177,-199,2024-01-18 09:34:14,0.0
2712,-344,18968,-169,179,-181,2024-01-18 09:34:14,0.0
2752,-260,19020,-179,198,-179,2024-01-18 09:34:14,0.0
2740,-340,18964,-177,197,-169,2024-01-18 09:34:14,0.0
2664,-384,18876,-168,182,-173,2024-01-18 09:34:14,0.0
2812,-300,18932,-175,192,-193,2024-01-18 09:34:14,0.0
2664,-240,19056,-157,203,-194,2024-01-18 09:34:14,0.0
2816,-244,18884,-171,187,-196,2024-01-18 09:34:14,0.0
2784,-228,18980,-191,221,-209,2024-01-18 09:34:14,0.0
2800,-248,18784,-193,187,-182,2024-01-18 09:34:14,0.0
2696,-324,19012,-176,189,-179,2024-01-18 09:34:14,0.0
2664,-264,18980,-171,186,-190,2024-01-18 09:34:14,0.0
2704,-236,19120,-129,192,-193,2024-01-18 09:34:14,0.0
2800,-152,19064,-167,170,-178,2024-01-18 09:34:14,0.0
2772,-352,19120,-183,213,-190,2024-01-18 09:34:14,0.0
2636,-300,18940,-170,165,-172,2024-01-18 09:34:14,0.0
2632,-344,19032,-156,211,-197,2024-01-18 09:34:14,0.0
2680,-184,18828,-172,203,-178,2024-01-18 09:34:14,0.0
2896,-256,18988,-166,199,-167,2024-01-18 09:34:14,0.0
2788,-280,18932,-174,186,-182,2024-01-18 09:34:14,0.0
2752,-348,18968,-175,213,-164,2024-01-18 09:34:14,0.0
2668,-268,19044,-168,191,-193,2024-01-18 09:34:14,
2820,-220,18828,-183,199,-188,2024-01-18 09:34:14,0.0
2740,-328,19220,-164,197,-172,2024-01-18 09:34:14,0.0
2720,-312,18928,-186,193,-177,2024-01-18 09:34:14,0.0
2772,-264,19084,-159,181,-182,2024-01-18 09:34:14,0.0
2724,-284,18920,-179,183,-181,2024-01-18 09:34:14,0.0
2816,-300,19020,-133,179,-197,2024-01-18 09:34:14,0.0
2728,-284,18972,-154,188,-174,2024-01-18 09:34:14,0.0
2760,-260,19032,-164,202,-175,2024-01-18 09:34:14,0.0
2680,-212,18752,-169,188,-182,2024-01-18 09:34:14,0.0
2672,-312,19040,-176,180,-198,2024-01-18 09:34:14,0.0
2768,-284,18988,-174,165,-185,2024-01-18 09:34:14,0.0
2680,-208,19208,-174,200,-184,2024-01-18 09:34:14,0.0
2756,-244,18832,-162,211,-180,2024-01-18 09:34:14,0.0
2728,-228,19036,-165,190,-192,2024-01-18 09:34:14,0.0
2656,-304,18860,-150,188,-172,2024-01-18 09:34:14,0.0
2800,-252,19076,-189,198,-194,2024-01-18 09:34:15,0.0
2716,-276,18868,-148,192,-193,2024-01-18 09:34:15,0.0
2728,-300,19032,-149,203,-183,2024-01-18 09:34:15,0.0
2768,-264,19048,-174,202,-202,2024-01-18 09:34:15,0.0
2724,-276,19004,-155,190,-212,2024-01-18 09:34:15,0.0
2680,-328,19016,-161,192,-176,2024-01-18 09:34:15,0.0
2796,-308,19064,-167,207,-178,2024-01-18 09:34:15,0.0
2800,-276,18988,-163,192,-160,2024-01-18 09:34:15,0.0
2628,-316,19036,-166,196,-187,2024-01-18 09:34:15,0.0
2736,-264,19036,-163,185,-191,2024-01-18 09:34:15,0.0
2728,-204,18964,-166,193,-193,2024-01-18 09:34:15,0.0
2672,-216,18964,-178,188,-187,2024-01-18 09:34:15,0.0
2780,-332,18856,-164,174,-192,2024-01-18 09:34:15,0.0
2692,-348,19004,-181,164,-195,2024-01-18 09:34:15,0.0
2740,-264,18928,-175,208,-177,2024-01-18 09:34:15,0.0
2756,-300,18976,-197,192,-166,2024-01-18 09:34:15,0.0
2748,-284,18860,-168,174,-168,2024-01-18 09:34:15,0.0
2716,-316,19080,-156,206,-189,2024-01-18 09:34:15,0.0
2788,-368,18860,-163,190,-209,2024-01-18 09:34:15,0.0
2752,-296,19060,-163,193,-162,2024-01-18 09:34:15,0.0
2812,-308,19052,-205,168,-198,2024-01-18 09:34:15,0.0
2688,-304,18992,-190,190,-172,2024-01-18 09:34:15,0.0
2752,-348,18960,-169,178,-194,2024-01-18 09:34:15,0.0
2788,-220,18996,-183,191,-176,2024-01-18 09:34:15,0.0
2844,-236,18976,-166,187,-184,2024-01-18 09:34:15,0.0
2764,-316,19112,-192,211,-192,2024-01-18 09:34:15,0.0
2664,-272,19036,-160,183,-191,2024-01-18 09:34:15,0.0
2704,-296,18948,-157,204,-199,2024-01-18 09:34:15,0.0
2692,-244,19016,-159,180,-192,2024-01-18 09:34:15,0.0
2776,-364,19000,-174,200,-185,2024-01-18 09:34:15,0.0
2780,-268,18980,-164,202,-181,2024-01-18 09:34:15,0.0
2660,-280,19156,-153,218,-194,2024-01-18 09:34:15,0.0
2860,-320,19112,-176,204,-181,2024-01-18 09:34:15,0.0
2800,-256,18864,-172,177,-191,2024-01-18 09:34:15,0.0
2740,-288,18936,-171,196,-184,2024-01-18 09:34:15,0.0
2732,-284,18856,-179,192,-199,2024-01-18 09:34:15,0.0
2724,-296,19012,-165,187,-205,2024-01-18 09:34:15,0.0
2676,-304,19016,-193,208,-181,2024-01-18 09:34:15,0.0
2756,-328,19144,-177,212,-183,2024-01-18 09:34:15,0.0
2704,-360,19012,-160,176,-179,2024-01-18 09:34:15,0.0
2720,-260,19108,-170,210,-169,2024-01-18 09:34:15,0.0
2712,-240,18988,-181,178,-168,2024-01-18 09:34:15,0.0
2748,-268,18960,-155,191,-181,2024-01-18 09:34:15,0.0
2712,-244,18872,-151,181,-182,2024-01-18 09:34:15,0.0
2692,-288,18980,-163,211,-175,2024-01-18 09:34:15,0.0
2620,-360,18952,-178,171,-173,2024-01-18 09:34:15,0.0
2716,-268,19008,-178,195,-171,2024-01-18 09:34:15,0.0
2716,-384,19088,-184,173,-179,2024-01-18 09:34:15,0.0
2736,-324,18960,-155,183,-198,2024-01-18 09:34:15,0.0
2736,-344,19024,-168,171,-174,2024-01-18 09:34:15,0.0
2664,-276,18984,-181,192,-174,2024-01-18 09:34:15,0.0
2708,-256,19052,-182,204,-189,2024-01-18 09:34:15,0.0
2664,-228,18940,-178,194,-164,2024-01-18 09:34:15,0.0
2684,-292,19096,-161,176,-191,2024-01-18 09:34:15,0.0
2732,-332,19064,-163,181,-172,2024-01-18 09:34:15,0.0
2748,-332,19060,-158,185,-177,2024-01-18 09:34:15,0.0
2748,-228,18888,-161,170,-190,2024-01-18 09:34:15,0.0
2772,-308,19004,-159,184,-193,2024-01-18 09:34:15,0.0
2828,-272,18936,-155,178,-209,2024-01-18 09:34:15,0.0
2680,-328,18964,-168,212,-202,2024-01-18 09:34:15,0.0
2772,-276,18936,-168,181,-169,2024-01-18 09:34:16,0.0
2740,-352,19016,-156,211,-177,2024-01-18 09:34:16,0.0
2796,-284,19044,-158,172,-187,2024-01-18 09:34:16,0.0
2760,-256,19068,-174,195,-191,2024-01-18 09:34:16,0.0
2720,-276,18980,-154,168,-173,2024-01-18 09:34:16,0.0
2716,-292,18764,-173,203,-179,2024-01-18 09:34:16,0.0
2760,-400,18976,-176,202,-185,2024-01-18 09:34:16,0.0
2692,-340,18992,-152,222,-197,2024-01-18 09:34:16,0.0
2784,-352,18948,-157,200,-168,2024-01-18 09:34:16,0.0
2688,-308,18976,-164,188,-188,2024-01-18 09:34:16,0.0
2652,-188,19100,-167,178,-182,2024-01-18 09:34:16,0.0
2828,-320,19076,-178,201,-182,2024-01-18 09:34:16,0.0
2636,-328,19252,-180,209,-172,2024-01-18 09:34:16,0.0
2724,-256,18912,-185,190,-174,2024-01-18 09:34:16,0.0
2792,-308,19076,-165,180,-193,2024-01-18 09:34:16,0.0
2788,-124,18932,-165,179,-195,2024-01-18 09:34:16,0.0
2756,-336,19056,-177,186,-179,2024-01-18 09:34:16,0.0
2736,-272,18972,-177,193,-169,2024-01-18 09:34:16,0.0
2796,-376,18868,-168,191,-165,2024-01-18 09:34:16,0.0
2684,-296,18948,-182,191,-183,2024-01-18 09:34:16,0.0
2788,-312,19164,-178,220,-178,2024-01-18 09:34:16,0.0
2688,-304,18912,-183,187,-196,2024-01-18 09:34:16,0.0
2740,-332,19064,-194,199,-184,2024-01-18 09:34:16,0.0
2740,-260,18840,-196,195,-197,2024-01-18 09:34:16,0.0
2736,-208,19004,-160,188,-191,2024-01-18 09:34:16,
2700,-308,18972,-177,183,-190,2024-01-18 09:34:16,0.0
2628,-292,18980,-159,189,-195,2024-01-18 09:34:16,0.0
2728,-224,19024,-171,175,-186,2024-01-18 09:34:16,0.0
2636,-324,18952,-162,184,-207,2024-01-18 09:34:16,0.0
2800,-312,19052,-162,173,-171,2024-01-18 09:34:16,0.0
2772,-256,18920,-177,183,-188,2024-01-18 09:34:16,0.0
2656,-240,18944,-180,197,-172,2024-01-18 09:34:16,0.0
2840,-316,18992,-163,189,-200,2024-01-18 09:34:16,0.0
2760,-212,18928,-169,190,-178,2024-01-18 09:34:16,0.0
2752,-216,18900,-152,188,-160,2024-01-18 09:34:16,0.0
2780,-340,19088,-141,218,-190,2024-01-18 09:34:16,0.0
2744,-364,18944,-156,182,-195,2024-01-18 09:34:16,0.0
2624,-324,19016,-181,191,-186,2024-01-18 09:34:16,0.0
2700,-232,19056,-177,181,-163,2024-01-18 09:34:16,0.0
2744,-276,18960,-191,192,-183,2024-01-18 09:34:16,0.0
2804,-212,18948,-183,213,-198,2024-01-18 09:34:16,0.0
2724,-288,19020,-150,181,-193,2024-01-18 09:34:16,0.0
2712,-272,19136,-164,189,-179,2024-01-18 09:34:16,0.0
2652,-356,19020,-149,218,-183,2024-01-18 09:34:16,0.0
2808,-356,19116,-153,192,-183,2024-01-18 09:34:16,0.0
2748,-288,18920,-185,200,-180,2024-01-18 09:34:16,0.0
2716,-340,19008,-165,190,-193,2024-01-18 09:34:16,0.0
2692,-244,19064,-174,189,-190,2024-01-18 09:34:16,0.0
2736,-280,19040,-170,187,-168,2024-01-18 09:34:16,0.0
2664,-204,19048,-163,184,-183,2024-01-18 09:34:16,0.0
2720,-296,18904,-189,186,-167,2024-01-18 09:34:16,0.0
2692,-276,18856,-174,170,-168,2024-01-18 09:34:16,0.0
2736,-328,18952,-155,173,-167,2024-01-18 09:34:16,0.0
2792,-312,18892,-151,213,-194,2024-01-18 09:34:16,0.0
2704,-236,19096,-174,189,-205,2024-01-18 09:34:16,0.0
2812,-320,18860,-169,222,-176,2024-01-18 09:34:16,0.0
2744,-296,19124,-181,191,-199,2024-01-18 09:34:16,0.0
2756,-252,19020,-165,183,-182,2024-01-18 09:34:16,0.0
2680,-332,18968,-170,188,-183,2024-01-18 09:34:16,0.0
2768,-268,18884,-177,190,-175,2024-01-18 09:34:17,0.0
2756,-320,19056,-160,202,-167,2024-01-18 09:34:17,0.0
2644,-204,18972,-130,196,-162,2024-01-18 09:34:17,0.0
2720,-268,18916,-162,193,-176,2024-01-18 09:34:17,0.0
2688,-248,19000,-173,185,-203,2024-01-18 09:34:17,0.0
2744,-264,18920,-168,190,-186,2024-01-18 09:34:17,0.0
2808,-332,19008,-185,183,-191,2024-01-18 09:34:17,0.0
2676,-344,19192,-160,181,-168,2024-01-18 09:34:17,0.0
2776,-220,18896,-169,179,-177,2024-01-18 09:34:17,0.0
2716,-284,19224,-169,191,-197,2024-01-18 09:34:17,0.0
2732,-264,19072,-177,174,-174,2024-01-18 09:34:17,0.0
2768,-280,18876,-173,202,-192,2024-01-18 09:34:17,0.0
2752,-256,19008,-158,182,-194,2024-01-18 09:34:17,0.0
2716,-272,18940,-167,193,-171,2024-01-18 09:34:17,0.0
2700,-324,19016,-160,188,-173,2024-01-18 09:34:17,0.0
2684,-312,18956,-164,203,-198,2024-01-18 09:34:17,0.0
2620,-252,19192,-156,196,-180,2024-01-18 09:34:17,0.0
2684,-328,18920,-148,205,-188,2024-01-18 09:34:17,0.0
2668,-196,19020,-180,194,-190,2024-01-18 09:34:17,0.0
2776,-268,19052,-174,201,-190,2024-01-18 09:34:17,0.0
2724,-312,19000,-170,200,-194,2024-01-18 09:34:17,0.0
2756,-336,18988,-141,207,-169,2024-01-18 09:34:17,0.0
2764,-220,19132,-169,196,-184,2024-01-18 09:34:17,0.0
2688,-368,18868,-201,211,-188,2024-01-18 09:34:17,0.0
2660,-208,19096,-181,190,-186,2024-01-18 09:34:17,0.0
2768,-364,18880,-157,179,-181,2024-01-18 09:34:17,0.0
2644,-276,19080,-169,205,-179,2024-01-18 09:34:17,0.0
2676,-284,19020,-183,169,-180,2024-01-18 09:34:17,0.0
2740,-340,18856,-141,203,-176,2024-01-18 09:34:17,0.0
2668,-388,18864,-173,183,-174,2024-01-18 09:34:17,0.0
2664,-244,18988,-181,192,-154,2024-01-18 09:34:17,0.0
2620,-340,19088,-157,183,-180,2024-01-18 09:34:17,0.0
2804,-260,18864,-165,182,-184,2024-01-18 09:34:17,0.0
2776,-276,19004,-172,192,-174,2024-01-18 09:34:17,0.0
2724,-184,18976,-140,187,-169,2024-01-18 09:34:17,0.0
2748,-300,19016,-160,184,-202,2024-01-18 09:34:17,0.0
2776,-244,19088,-180,202,-189,2024-01-18 09:34:17,0.0
2784,-276,19088,-167,196,-165,2024-01-18 09:34:17,0.0
2664,-304,18864,-151,184,-177,2024-01-18 09:34:17,0.0
2768,-264,18976,-157,190,-189,2024-01-18 09:34:17,0.0
2632,-264,19116,-159,198,-179,2024-01-18 09:34:17,0.0
2760,-212,18964,-153,207,-188,2024-01-18 09:34:17,0.0
2716,-272,19020,-172,190,-179,2024-01-18 09:34:17,0.0
2752,-296,18948,-148,200,-188,2024-01-18 09:34:17,0.0
2776,-200,18924,-188,198,-180,2024-01-18 09:34:17,0.0
2704,-320,18964,-199,215,-186,2024-01-18 09:34:17,0.0
2740,-248,18956,-163,172,-189,2024-01-18 09:34:17,0.0
2820,-352,19012,-175,185,-196,2024-01-18 09:34:17,0.0
2852,-292,18888,-192,192,-192,2024-01-18 09:34:17,0.0
2692,-288,18988,-151,173,-170,2024-01-18 09:34:17,0.0
2636,-336,18996,-183,198,-176,2024-01-18 09:34:17,0.0
2756,-220,18968,-173,207,-182,2024-01-18 09:34:17,0.0
2704,-268,18956,-168,225,-193,2024-01-18 09:34:17,0.0
2716,-296,18984,-182,195,-174,2024-01-18 09:34:17,0.0
2780,-252,19000,-156,195,-174,2024-01-18 09:34:17,0.0
2736,-272,19112,-157,184,-200,2024-01-18 09:34:17,0.0
2728,-324,19020,-163,191,-194,2024-01-18 09:34:17,0.0
2784,-236,18980,-174,190,-166,2024-01-18 09:34:17,0.0
2712,-268,18904,-175,202,-190,2024-01-18 09:34:17,0.0
2792,-196,18976,-170,210,-189,2024-01-18 09:34:18,0.0
2772,-284,18888,-180,189,-159,2024-01-18 09:34:18,0.0
2740,-244,18972,-163,199,-183,2024-01-18 09:34:18,0.0
2724,-328,18928,-184,189,-185,2024-01-18 09:34:18,0.0
2688,-244,19104,-198,200,-160,2024-01-18 09:34:18,0.0
2680,-352,19052,-174,178,-184,2024-01-18 09:34:18,0.0
2784,-284,18876,-193,168,-181,2024-01-18 09:34:18,
2740,-236,19016,-167,163,-181,2024-01-18 09:34:18,0.0
2724,-388,18916,-169,221,-188,2024-01-18 09:34:18,0.0
2708,-344,18832,-158,179,-180,2024-01-18 09:34:18,0.0
2568,-336,19144,-176,210,-187,2024-01-18 09:34:18,0.0
2692,-308,18952,-173,186,-195,2024-01-18 09:34:18,0.0
2828,-268,18916,-166,217,-190,2024-01-18 09:34:18,0.0
2720,-316,19044,-163,200,-188,2024-01-18 09:34:18,0.0
2704,-268,19004,-194,197,-210,2024-01-18 09:34:18,0.0
2668,-272,18976,-162,170,-179,2024-01-18 09:34:18,0.0
2756,-284,18832,-159,205,-168,2024-01-18 09:34:18,0.0
2712,-208,18916,-157,184,-186,2024-01-18 09:34:18,0.0
2756,-364,18992,-192,196,-200,2024-01-18 09:34:18,0.0
2784,-284,18956,-166,219,-180,2024-01-18 09:34:18,0.0
2820,-280,18916,-177,203,-184,2024-01-18 09:34:18,0.0
2748,-316,19064,-148,213,-202,2024-01-18 09:34:18,0.0
2876,-336,18936,-150,183,-174,2024-01-18 09:34:18,0.0
2636,-188,19084,-156,188,-189,2024-01-18 09:34:18,0.0
2732,-324,18888,-163,183,-176,2024-01-18 09:34:18,0.0
2736,-360,18944,-152,181,-197,2024-01-18 09:34:18,0.0
2792,-280,18972,-175,197,-179,2024-01-18 09:34:18,0.0
2748,-260,18868,-156,166,-188,2024-01-18 09:34:18,0.0
2720,-244,19068,-158,175,-196,2024-01-18 09:34:18,0.0
2744,-292,18964,-164,194,-180,2024-01-18 09:34:18,0.0
2792,-264,18816,-165,173,-191,2024-01-18 09:34:18,0.0
2728,-276,19076,-184,194,-199,2024-01-18 09:34:18,0.0
2792,-348,18816,-166,169,-195,2024-01-18 09:34:18,0.0
2760,-260,19088,-178,214,-188,2024-01-18 09:34:18,0.0
2692,-316,19116,-180,187,-172,2024-01-18 09:34:18,0.0
2756,-336,18956,-185,197,-167,2024-01-18 09:34:18,0.0
2604,-288,18972,-177,178,-190,2024-01-18 09:34:18,0.0
2804,-332,19032,-160,196,-168,2024-01-18 09:34:18,0.0
2804,-240,19008,-180,182,-200,2024-01-18 09:34:18,0.0
2744,-396,18904,-179,203,-189,2024-01-18 09:34:18,0.0
2688,-368,19080,-163,174,-189,2024-01-18 09:34:18,0.0
2760,-352,18912,-182,201,-177,2024-01-18 09:34:18,0.0
2688,-288,18992,-172,196,-176,2024-01-18 09:34:18,0.0
2812,-288,18980,-160,210,-189,2024-01-18 09:34:18,0.0
2700,-280,18940,-182,186,-172,2024-01-18 09:34:18,0.0
2708,-196,19100,-169,194,-192,2024-01-18 09:34:18,0.0
2696,-340,18940,-155,183,-183,2024-01-18 09:34:18,0.0
2680,-312,18928,-155,198,-192,2024-01-18 09:34:18,0.0
2688,-180,18832,-159,195,-188,2024-01-18 09:34:18,0.0
2656,-340,18852,-154,200,-173,2024-01-18 09:34:18,0.0
2728,-280,19132,-165,207,-198,2024-01-18 09:34:18,0.0
2700,-284,18872,-165,197,-188,2024-01-18 09:34:18,0.0
2788,-368,19016,-161,178,-172,2024-01-18 09:34:18,0.0
2680,-212,19112,-153,187,-183,2024-01-18 09:34:18,0.0
2696,-236,19196,-175,193,-179,2024-01-18 09:34:18,0.0
2644,-356,18920,-178,204,-181,2024-01-18 09:34:18,0.0
2716,-276,19024,-181,209,-167,2024-01-18 09:34:18,0.0
2688,-288,19084,-163,203,-193,2024-01-18 09:34:18,0.0
2664,-312,19164,-183,190,-163,2024-01-18 09:34:18,0.0
2772,-240,18896,-161,196,-209,2024-01-18 09:34:18,0.0
2752,-364,19008,-167,195,-211,2024-01-18 09:34:19,0.0
2680,-292,18868,-168,200,-190,2024-01-18 09:34:19,0.0
2808,-264,18984,-176,198,-181,2024-01-18 09:34:19,0.0
2780,-280,19036,-161,179,-189,2024-01-18 09:34:19,0.0
2828,-268,19052,-182,165,-190,2024-01-18 09:34:19,0.0
2728,-220,18796,-186,166,-192,2024-01-18 09:34:19,0.0
2724,-352,18932,-164,211,-167,2024-01-18 09:34:19,0.0
2736,-208,19032,-162,198,-170,2024-01-18 09:34:19,0.0
2728,-344,18984,-169,210,-170,2024-01-18 09:34:19,0.0
2716,-340,19000,-171,202,-178,2024-01-18 09:34:19,0.0
2720,-240,19028,-172,167,-174,2024-01-18 09:34:19,0.0
2708,-276,18912,-172,187,-178,2024-01-18 09:34:19,0.0
2760,-292,19028,-176,209,-184,2024-01-18 09:34:19,0.0
2676,-244,19044,-175,163,-174,2024-01-18 09:34:19,0.0
2776,-348,19060,-150,207,-179,2024-01-18 09:34:19,0.0
2808,-332,18968,-156,153,-192,2024-01-18 09:34:19,0.0
2704,-380,18904,-162,169,-187,2024-01-18 09:34:19,0.0
2636,-124,18976,-160,200,-177,2024-01-18 09:34:19,0.0
2692,-288,18872,-190,190,-176,2024-01-18 09:34:19,0.0
2772,-276,19012,-147,175,-205,2024-01-18 09:34:19,0.0
2740,-232,18984,-179,182,-181,2024-01-18 09:34:19,0.0
2728,-276,19104,-163,187,-184,2024-01-18 09:34:19,0.0
2640,-356,18772,-186,186,-190,2024-01-18 09:34:19,0.0
2808,-252,18968,-177,176,-191,2024-01-18 09:34:19,0.0
2716,-344,18904,-141,195,-174,2024-01-18 09:34:19,0.0
2628,-208,19044,-162,200,-197,2024-01-18 09:34:19,0.0
2660,-284,18900,-163,191,-182,2024-01-18 09:34:19,0.0
2756,-300,18992,-166,198,-205,2024-01-18 09:34:19,0.0
2708,-332,18984,-173,205,-176,2024-01-18 09:34:19,0.0
2784,-208,19004,-179,168,-192,2024-01-18 09:34:19,0.0
2704,-288,18792,-178,193,-192,2024-01-18 09:34:19,0.0
2692,-288,19024,-177,186,-211,2024-01-18 09:34:19,0.0
2740,-392,18944,-168,200,-200,2024-01-18 09:34:19,0.0
2744,-272,19056,-173,196,-170,2024-01-18 09:34:19,0.0
2776,-364,18904,-154,192,-191,2024-01-18 09:34:19,0.0
2692,-348,19060,-194,206,-165,2024-01-18 09:34:19,0.0
2708,-324,18964,-172,170,-198,2024-01-18 09:34:19,0.0
2628,-252,18944,-173,215,-174,2024-01-18 09:34:19,0.0
2752,-312,19060,-177,196,-194,2024-01-18 09:34:19,0.0
2744,-300,18836,-160,176,-191,2024-01-18 09:34:19,0.0
2712,-296,19088,-177,202,-203,2024-01-18 09:34:19,0.0
2768,-280,18828,-154,195,-187,2024-01-18 09:34:19,0.0
2672,-264,18852,-157,180,-203,2024-01-18 09:34:19,0.0
2696,-304,18944,-169,192,-198,2024-01-18 09:34:19,0.0
2744,-184,19004,-160,190,-185,2024-01-18 09:34:19,0.0
2808,-312,19108,-179,184,-166,2024-01-18 09:34:19,0.0
2744,-332,18984,-161,186,-172,2024-01-18 09:34:19,
2664,-300,18992,-159,195,-178,2024-01-18 09:34:19,0.0
2740,-324,18964,-157,197,-184,2024-01-18 09:34:19,0.0
2728,-160,18976,-160,193,-201,2024-01-18 09:34:19,0.0
2824,-292,19012,-176,200,-177,2024-01-18 09:34:19,0.0
2792,-240,18912,-188,168,-199,2024-01-18 09:34:19,0.0
2776,-244,19132,-164,178,-179,2024-01-18 09:34:19,0.0
2724,-300,18992,-174,184,-163,2024-01-18 09:34:19,0.0
2700,-384,18852,-168,181,-187,2024-01-18 09:34:19,0.0
2824,-384,19028,-185,171,-190,2024-01-18 09:34:19,0.0
2732,-324,19008,-167,189,-179,2024-01-18 09:34:19,0.0
2776,-228,18932,-174,192,-181,2024-01-18 09:34:19,0.0
2760,-316,18888,-170,196,-176,2024-01-18 09:34:19,0.0
2668,-208,18824,-175,191,-197,2024-01-18 09:34:19,0.0
2784,-308,19028,-147,205,-168,2024-01-18 09:34:20,0.0
2760,-288,18948,-185,185,-168,2024-01-18 09:34:20,0.0
2696,-436,19016,-166,178,-174,2024-01-18 09:34:20,0.0
2700,-308,18912,-163,178,-173,2024-01-18 09:34:20,0.0
2764,-316,18960,-159,172,-173,2024-01-18 09:34:20,0.0
2796,-316,18856,-174,206,-194,2024-01-18 09:34:20,0.0
2688,-364,19016,-186,174,-200,2024-01-18 09:34:20,0.0
2804,-324,19068,-162,200,-170,2024-01-18 09:34:20,0.0
2652,-284,19084,-158,185,-206,2024-01-18 09:34:20,0.0
2740,-256,18972,-173,207,-190,2024-01-18 09:34:20,0.0
2624,-240,19108,-167,193,-170,2024-01-18 09:34:20,0.0
2748,-264,18848,-156,185,-208,2024-01-18 09:34:20,0.0
2748,-304,18960,-165,195,-195,2024-01-18 09:34:20,0.0
2672,-296,18940,-172,170,-194,2024-01-18 09:34:20,0.0
2752,-264,18996,-146,198,-195,2024-01-18 09:34:20,0.0
2736,-296,19076,-175,181,-208,2024-01-18 09:34:20,0.0
2764,-332,19028,-167,197,-177,2024-01-18 09:34:20,0.0
2748,-308,18920,-170,192,-202,2024-01-18 09:34:20,0.0
2824,-260,18996,-167,177,-180,2024-01-18 09:34:20,0.0
2740,-200,18872,-155,194,-186,2024-01-18 09:34:20,0.0
2760,-204,18988,-169,194,-198,2024-01-18 09:34:20,0.0
2804,-300,18912,-197,195,-172,2024-01-18 09:34:20,0.0
2780,-376,18932,-201,187,-180,2024-01-18 09:34:20,0.0
2672,-264,19044,-161,195,-180,2024-01-18 09:34:20,0.0
2760,-348,18976,-172,200,-188,2024-01-18 09:34:20,0.0
2756,-192,19092,-170,204,-199,2024-01-18 09:34:20,0.0
2668,-200,18904,-158,197,-194,2024-01-18 09:34:20,0.0
2744,-288,18940,-161,190,-183,2024-01-18 09:34:20,0.0
2792,-348,19040,-174,222,-197,2024-01-18 09:34:20,0.0
2760,-288,19012,-178,185,-181,2024-01-18 09:34:20,0.0
2732,-296,19112,-182,169,-192,2024-01-18 09:34:20,0.0
2872,-264,18984,-164,194,-158,2024-01-18 09:34:20,0.0
2748,-308,18892,-173,198,-182,2024-01-18 09:34:20,0.0
2676,-280,18888,-179,192,-192,2024-01-18 09:34:20,0.0
2752,-276,18944,-168,194,-175,2024-01-18 09:34:20,0.0
2684,-248,18988,-154,183,-192,2024-01-18 09:34:20,0.0
2828,-188,19032,-160,190,-193,2024-01-18 09:34:20,0.0
2716,-296,18892,-162,183,-188,2024-01-18 09:34:20,0.0
2748,-200,18944,-188,185,-174,2024-01-18 09:34:20,0.0
2732,-260,19076,-162,193,-181,2024-01-18 09:34:20,0.0
2768,-288,19052,-185,191,-179,2024-01-18 09:34:20,0.0
2732,-304,18944,-173,193,-224,2024-01-18 09:34:20,0.0
2680,-336,18940,-149,206,-171,2024-01-18 09:34:20,0.0
2736,-312,19012,-172,196,-170,2024-01-18 09:34:20,0.0
2732,-348,18928,-201,179,-200,2024-01-18 09:34:20,0.0
2816,-260,19020,-182,179,-159,2024-01-18 09:34:20,0.0
2748,-308,19032,-174,183,-183,2024-01-18 09:34:20,0.0
2820,-304,18916,-156,208,-182,2024-01-18 09:34:20,0.0
2712,-248,19032,-161,186,-185,2024-01-18 09:34:20,0.0
2688,-260,19000,-177,195,-208,2024-01-18 09:34:20,0.0
2628,-312,18932,-177,166,-171,2024-01-18 09:34:20,0.0
2668,-356,18992,-168,220,-182,2024-01-18 09:34:20,0.0
2776,-196,18964,-164,176,-185,2024-01-18 09:34:20,0.0
2788,-312,19076,-163,188,-185,2024-01-18 09:34:20,0.0
2740,-296,18896,-170,203,-181,2024-01-18 09:34:20,0.0
2724,-300,19096,-178,200,-185,2024-01-18 09:34:20,0.0
2732,-180,18972,-169,179,-193,2024-01-18 09:34:20,0.0
2684,-400,19040,-171,202,-188,2024-01-18 09:34:20,0.0
2712,-276,18932,-181,199,-189,2024-01-18 09:34:20,0.0
2688,-400,19048,-165,197,-190,2024-01-18 09:34:21,0.0
2704,-292,18996,-152,185,-193,2024-01-18 09:34:21,0.0
2748,-272,18900,-170,192,-191,2024-01-18 09:34:21,0.0
2708,-324,19020,-166,194,-182,2024-01-18 09:34:21,0.0
2704,-304,18952,-172,202,-166,2024-01-18 09:34:21,0.0
2780,-240,18992,-174,185,-184,2024-01-18 09:34:21,0.0
2696,-296,18996,-179,193,-169,2024-01-18 09:34:21,0.0
2760,-352,18996,-181,188,-183,2024-01-18 09:34:21,0.0
2736,-304,18840,-180,210,-197,2024-01-18 09:34:21,0.0
2668,-324,19000,-144,195,-206,2024-01-18 09:34:21,0.0
2796,-268,19072,-172,199,-165,2024-01-18 09:34:21,0.0
2640,-376,18904,-167,189,-193,2024-01-18 09:34:21,0.0
2632,-268,19072,-196,200,-176,2024-01-18 09:34:21,0.0
2752,-268,19020,-164,185,-185,2024-01-18 09:34:21,0.0
2804,-324,18880,-171,188,-168,2024-01-18 09:34:21,0.0
2816,-312,19112,-168,190,-178,2024-01-18 09:34:21,0.0
2796,-312,18988,-200,180,-169,2024-01-18 09:34:21,0.0
2680,-228,18956,-175,200,-175,2024-01-18 09:34:21,0.0
2704,-196,18848,-180,196,-192,2024-01-18 09:34:21,0.0
2712,-300,18916,-137,190,-174,2024-01-18 09:34:21,0.0
2672,-376,19116,-165,175,-175,2024-01-18 09:34:21,0.0
2744,-256,18976,-148,172,-208,2024-01-18 09:34:21,0.0
2724,-384,18848,-174,179,-176,2024-01-18 09:34:21,0.0
2676,-316,19228,-174,192,-187,2024-01-18 09:34:21,0.0
2664,-304,19120,-161,192,-210,2024-01-18 09:34:21,0.0
2804,-288,18908,-161,194,-198,2024-01-18 09:34:21,0.0
2716,-296,18864,-177,186,-184,2024-01-18 09:34:21,0.0
2704,-280,18988,-147,185,-189,2024-01-18 09:34:21,
2796,-284,18876,-169,192,-194,2024-01-18 09:34:21,0.0
2708,-272,18956,-151,178,-180,2024-01-18 09:34:21,0.0
2664,-288,18924,-174,185,-189,2024-01-18 09:34:21,0.0
2680,-316,18860,-178,179,-193,2024-01-18 09:34:21,0.0
2768,-240,18956,-166,191,-183,2024-01-18 09:34:21,0.0
2716,-280,18932,-180,177,-187,2024-01-18 09:34:21,0.0
2744,-252,18888,-155,185,-197,2024-01-18 09:34:21,0.0
2676,-392,19040,-171,192,-187,2024-01-18 09:34:21,0.0
2676,-308,18996,-156,193,-183,2024-01-18 09:34:21,0.0
2684,-200,18996,-177,188,-186,2024-01-18 09:34:21,0.0
2720,-320,18980,-168,200,-199,2024-01-18 09:34:21,0.0
2728,-356,18944,-148,181,-200,2024-01-18 09:34:21,0.0
2700,-384,18968,-165,192,-180,2024-01-18 09:34:21,0.0
2776,-252,19056,-184,202,-177,2024-01-18 09:34:21,0.0
2772,-316,19108,-171,176,-185,2024-01-18 09:34:21,0.0
2696,-316,18840,-170,182,-172,2024-01-18 09:34:21,0.0
2704,-280,19052,-183,191,-173,2024-01-18 09:34:21,0.0
2696,-316,18956,-157,202,-180,2024-01-18 09:34:21,0.0
2812,-288,18932,-173,180,-177,2024-01-18 09:34:21,0.0
2728,-256,18888,-197,182,-187,2024-01-18 09:34:21,0.0
2716,-352,18948,-144,185,-187,2024-01-18 09:34:21,0.0
2724,-332,19040,-169,187,-195,2024-01-18 09:34:21,0.0
2792,-384,18888,-182,212,-175,2024-01-18 09:34:21,0.0
2728,-264,19000,-169,207,-182,2024-01-18 09:34:21,0.0
2712,-144,18968,-176,192,-187,2024-01-18 09:34:21,0.0
2704,-180,18932,-177,200,-177,2024-01-18 09:34:21,0.0
2812,-324,19100,-167,169,-193,2024-01-18 09:34:21,0.0
2772,-328,18972,-177,192,-171,2024-01-18 09:34:21,0.0
2724,-224,18888,-160,178,-198,2024-01-18 09:34:21,0.0
2832,-352,19012,-160,181,-187,2024-01-18 09:34:21,0.0
2768,-288,19072,-172,184,-187,2024-01-18 09:34:21,0.0
2740,-276,18796,-187,208,-192,2024-01-18 09:34:21,0.0
2732,-312,18976,-168,185,-188,2024-01-18 09:34:22,0.0
2752,-364,19012,-164,217,-171,2024-01-18 09:34:22,0.0
2760,-304,18896,-193,206,-167,2024-01-18 09:34:22,0.0
2644,-288,18876,-182,194,-189,2024-01-18 09:34:22,0.0
2784,-356,19032,-141,201,-168,2024-01-18 09:34:22,0.0
2784,-308,18924,-158,196,-177,2024-01-18 09:34:22,0.0
2716,-312,19048,-177,183,-180,2024-01-18 09:34:22,0.0
2752,-228,19056,-160,183,-171,2024-01-18 09:34:22,0.0
2756,-296,18908,-166,192,-180,2024-01-18 09:34:22,0.0
2692,-332,18988,-159,170,-173,2024-01-18 09:34:22,0.0
2840,-400,19328,-182,220,-173,2024-01-18 09:34:22,0.0
2840,-280,19020,-198,159,-178,2024-01-18 09:34:22,0.0
2704,-208,18864,-178,171,-200,2024-01-18 09:34:22,0.0
2800,-332,18944,-164,194,-185,2024-01-18 09:34:22,0.0
2704,-344,19100,-174,175,-166,2024-01-18 09:34:22,0.0
2696,-316,19008,-162,189,-201,2024-01-18 09:34:22,0.0
2644,-268,19060,-184,202,-173,2024-01-18 09:34:22,0.0
2784,-208,18924,-174,179,-157,2024-01-18 09:34:22,0.0
2760,-184,18924,-143,167,-204,2024-01-18 09:34:22,0.0
2748,-224,19064,-144,167,-170,2024-01-18 09:34:22,0.0
2696,-284,19044,-165,189,-178,2024-01-18 09:34:22,0.0
2700,-268,18996,-189,181,-203,2024-01-18 09:34:22,0.0
2768,-376,18888,-143,217,-177,2024-01-18 09:34:22,0.0
2652,-268,18976,-182,187,-179,2024-01-18 09:34:22,0.0
2660,-252,18976,-177,188,-170,2024-01-18 09:34:22,0.0
2688,-280,18880,-193,194,-185,2024-01-18 09:34:22,0.0
2696,-224,18964,-176,192,-189,2024-01-18 09:34:22,0.0
2692,-236,19088,-193,175,-171,2024-01-18 09:34:22,0.0
2728,-356,19024,-130,187,-176,2024-01-18 09:34:22,0.0
2824,-208,18976,-153,178,-173,2024-01-18 09:34:22,0.0
2632,-216,18876,-159,190,-196,2024-01-18 09:34:22,0.0
2732,-308,18984,-157,177,-196,2024-01-18 09:34:22,0.0
2824,-288,18820,-143,200,-188,2024-01-18 09:34:22,0.0
2768,-292,18936,-180,157,-158,2024-01-18 09:34:22,0.0
2664,-256,18900,-197,190,-179,2024-01-18 09:34:22,0.0
2628,-348,19168,-173,191,-184,2024-01-18 09:34:22,0.0
2732,-268,18980,-187,192,-187,2024-01-18 09:34:22,0.0
2700,-364,18784,-179,186,-188,2024-01-18 09:34:22,0.0
2656,-284,18944,-169,175,-167,2024-01-18 09:34:22,0.0
2744,-324,18976,-142,214,-176,2024-01-18 09:34:22,0.0
2824,-260,19004,-178,165,-196,2024-01-18 09:34:22,0.0
2736,-276,18912,-180,172,-186,2024-01-18 09:34:22,0.0
2668,-320,18724,-186,193,-166,2024-01-18 09:34:22,0.0
2732,-348,18996,-181,187,-195,2024-01-18 09:34:22,0.0
2764,-212,19072,-193,203,-178,2024-01-18 09:34:22,0.0
2728,-288,18908,-167,195,-174,2024-01-18 09:34:22,0.0
2692,-148,19084,-170,206,-163,2024-01-18 09:34:22,0.0
2740,-256,18876,-206,198,-207,2024-01-18 09:34:22,0.0
2688,-344,18932,-157,185,-170,2024-01-18 09:34:22,0.0
2700,-284,19020,-185,198,-193,2024-01-18 09:34:22,0.0
2732,-348,18908,-152,200,-188,2024-01-18 09:34:22,0.0
2740,-232,18948,-186,175,-155,2024-01-18 09:34:22,0.0
2668,-248,18968,-173,208,-199,2024-01-18 09:34:22,0.0
2732,-364,19044,-175,213,-196,2024-01-18 09:34:22,0.0
2720,-368,18824,-179,177,-197,2024-01-18 09:34:22,0.0
2756,-332,18988,-165,211,-184,2024-01-18 09:34:22,0.0
2724,-328,18776,-166,176,-201,2024-01-18 09:34:22,0.0
2736,-280,19004,-185,189,-181,2024-01-18 09:34:22,0.0
2732,-320,19004,-172,186,-155,2024-01-18 09:34:22,0.0
2724,-288,19020,-175,185,-203,2024-01-18 09:34:23,0.0
2708,-288,18948,-171,197,-189,2024-01-18 09:34:23,0.0
2680,-232,19152,-161,176,-173,2024-01-18 09:34:23,0.0
2744,-264,18976,-180,211,-188,2024-01-18 09:34:23,0.0
2712,-272,18952,-151,197,-171,2024-01-18 09:34:23,0.0
2664,-324,19088,-173,202,-193,2024-01-18 09:34:23,0.0
2704,-376,18940,-180,179,-201,2024-01-18 09:34:23,0.0
2608,-248,19040,-151,212,-188,2024-01-18 09:34:23,0.0
2780,-300,18912,-161,206,-179,2024-01-18 09:34:23,
2768,-232,18960,-166,192,-191,2024-01-18 09:34:23,0.0
2852,-336,18956,-175,188,-170,2024-01-18 09:34:23,0.0
2712,-304,18852,-161,204,-190,2024-01-18 09:34:23,0.0
2700,-268,19076,-168,175,-179,2024-01-18 09:34:23,0.0
2704,-296,18940,-177,193,-196,2024-01-18 09:34:23,0.0
2732,-300,19008,-185,198,-171,2024-01-18 09:34:23,0.0
2704,-216,19012,-176,187,-194,2024-01-18 09:34:23,0.0
2752,-272,18924,-183,192,-160,2024-01-18 09:34:23,0.0
2800,-300,19124,-176,172,-188,2024-01-18 09:34:23,0.0
2800,-276,18908,-184,181,-180,2024-01-18 09:34:23,0.0
2744,-344,18944,-203,189,-168,2024-01-18 09:34:23,0.0
2712,-424,18912,-167,184,-187,2024-01-18 09:34:23,0.0
2796,-256,18864,-180,192,-178,2024-01-18 09:34:23,0.0
2772,-384,18944,-165,156,-193,2024-01-18 09:34:23,0.0
2724,-308,19132,-177,174,-174,2024-01-18 09:34:23,0.0
2748,-332,19156,-155,193,-189,2024-01-18 09:34:23,0.0
2788,-296,18860,-170,183,-175,2024-01-18 09:34:23,0.0
2736,-284,18956,-180,188,-173,2024-01-18 09:34:23,0.0
2740,-292,18964,-184,184,-193,2024-01-18 09:34:23,0.0
2768,-264,19028,-160,206,-164,2024-01-18 09:34:23,0.0
2788,-320,18908,-164,180,-190,2024-01-18 09:34:23,0.0
2708,-192,19008,-178,189,-159,2024-01-18 09:34:23,0.0
2612,-364,19148,-159,174,-191,2024-01-18 09:34:23,0.0
2736,-348,18880,-200,198,-196,2024-01-18 09:34:23,0.0
2680,-372,19084,-176,194,-172,2024-01-18 09:34:23,0.0
2784,-252,18936,-140,180,-185,2024-01-18 09:34:23,0.0
2700,-248,19088,-154,181,-198,2024-01-18 09:34:23,0.0
2644,-204,18976,-170,201,-146,2024-01-18 09:34:23,0.0
2708,-332,18872,-170,196,-165,2024-01-18 09:34:23,0.0
2772,-328,19076,-173,195,-168,2024-01-18 09:34:23,0.0
2720,-264,19036,-173,190,-165,2024-01-18 09:34:23,0.0
2732,-304,18996,-152,199,-186,2024-01-18 09:34:23,0.0
2696,-376,18940,-171,199,-175,2024-01-18 09:34:23,0.0
2732,-236,19068,-146,183,-167,2024-01-18 09:34:23,0.0
2716,-244,18968,-160,209,-194,2024-01-18 09:34:23,0.0
2792,-308,18900,-169,189,-186,2024-01-18 09:34:23,0.0
2852,-352,18968,-159,194,-204,2024-01-18 09:34:23,0.0
2748,-320,18960,-190,189,-197,2024-01-18 09:34:23,0.0
2772,-252,19052,-156,173,-178,2024-01-18 09:34:23,0.0
2712,-276,18904,-182,204,-193,2024-01-18 09:34:23,0.0
2724,-260,19024,-157,189,-187,2024-01-18 09:34:23,0.0
2792,-300,19076,-178,178,-195,2024-01-18 09:34:23,0.0
2824,-332,18984,-151,202,-193,2024-01-18 09:34:23,0.0
2736,-332,19028,-179,189,-165,2024-01-18 09:34:23,0.0
2716,-340,19072,-175,218,-190,2024-01-18 09:34:23,0.0
2736,-232,19012,-169,204,-183,2024-01-18 09:34:23,0.0
2724,-296,18892,-170,184,-184,2024-01-18 09:34:23,0.0
2732,-192,18888,-178,204,-181,2024-01-18 09:34:23,0.0
2712,-272,18924,-164,188,-184,2024-01-18 09:34:23,0.0
2848,-252,19024,-185,193,-192,2024-01-18 09:34:23,0.0
2744,-316,19184,-181,195,-190,2024-01-18 09:34:23,0.0
2672,-316,18960,-171,190,-181,2024-01-18 09:34:24,0.0
2728,-308,18884,-160,193,-185,2024-01-18 09:34:24,0.0
2752,-268,18964,-159,188,-183,2024-01-18 09:34:24,0.0
2660,-288,18960,-175,203,-168,2024-01-18 09:34:24,0.0
2700,-240,19064,-160,174,-177,2024-01-18 09:34:24,0.0
2724,-284,19092,-173,193,-183,2024-01-18 09:34:24,0.0
2736,-240,19020,-162,189,-181,2024-01-18 09:34:24,0.0
2772,-224,18976,-182,167,-201,2024-01-18 09:34:24,0.0
2680,-216,18960,-199,178,-189,2024-01-18 09:34:24,0.0
2604,-256,19008,-164,176,-169,2024-01-18 09:34:24,0.0
2820,-288,18984,-195,219,-192,2024-01-18 09:34:24,0.0
2748,-336,18980,-158,196,-187,2024-01-18 09:34:24,0.0
2736,-312,18972,-170,189,-192,2024-01-18 09:34:24,0.0
2720,-360,19064,-167,198,-177,2024-01-18 09:34:24,0.0
2728,-244,18900,-161,174,-166,2024-01-18 09:34:24,0.0
2624,-268,19032,-191,190,-175,2024-01-18 09:34:24,0.0
2748,-300,18956,-180,195,-171,2024-01-18 09:34:24,0.0
2812,-312,19160,-168,176,-174,2024-01-18 09:34:24,0.0
2740,-240,19072,-169,188,-192,2024-01-18 09:34:24,0.0
2828,-364,18912,-167,214,-165,2024-01-18 09:34:24,0.0
2684,-392,18972,-167,199,-191,2024-01-18 09:34:24,0.0
2780,-244,19024,-163,186,-191,2024-01-18 09:34:24,0.0
2756,-236,19060,-136,191,-182,2024-01-18 09:34:24,0.0
2780,-328,18980,-182,184,-186,2024-01-18 09:34:24,0.0
2780,-280,18952,-167,193,-165,2024-01-18 09:34:24,0.0
2716,-296,19016,-170,182,-193,2024-01-18 09:34:24,0.0
2728,-280,19016,-178,198,-204,2024-01-18 09:34:24,0.0
2704,-348,19020,-171,198,-179,2024-01-18 09:34:24,0.0
2820,-284,18916,-165,214,-170,2024-01-18 09:34:24,0.0
2664,-328,19140,-175,201,-190,2024-01-18 09:34:24,0.0
2796,-324,19032,-170,167,-172,2024-01-18 09:34:24,0.0
2828,-224,18932,-175,213,-196,2024-01-18 09:34:24,0.0
2652,-372,18880,-150,186,-182,2024-01-18 09:34:24,0.0
2804,-276,19032,-157,195,-184,2024-01-18 09:34:24,0.0
2756,-288,19056,-160,184,-198,2024-01-18 09:34:24,0.0
2764,-288,18968,-154,189,-174,2024-01-18 09:34:24,0.0
2684,-324,19116,-160,208,-174,2024-01-18 09:34:24,0.0
2776,-240,18952,-181,201,-170,2024-01-18 09:34:24,0.0
2788,-260,18880,-185,191,-185,2024-01-18 09:34:24,0.0
2756,-304,18844,-179,182,-170,2024-01-18 09:34:24,0.0
2752,-236,19024,-160,196,-181,2024-01-18 09:34:24,0.0
2772,-264,19064,-182,179,-181,2024-01-18 09:34:24,0.0
2672,-224,19092,-160,185,-182,2024-01-18 09:34:24,0.0
2728,-340,18948,-164,190,-206,2024-01-18 09:34:24,0.0
2716,-360,18960,-164,177,-181,2024-01-18 09:34:24,0.0
2776,-224,18952,-174,187,-180,2024-01-18 09:34:24,0.0
2732,-232,18976,-174,178,-174,2024-01-18 09:34:24,0.0
2644,-240,18924,-151,207,-187,2024-01-18 09:34:24,0.0
2664,-404,18904,-136,196,-165,2024-01-18 09:34:24,
2752,-300,18856,-150,211,-193,2024-01-18 09:34:24,0.0
2748,-320,19196,-176,195,-187,2024-01-18 09:34:24,0.0
2720,-312,18932,-187,194,-190,2024-01-18 09:34:24,0.0
2696,-308,19028,-186,185,-211,2024-01-18 09:34:24,0.0
2716,-328,19036,-154,186,-168,2024-01-18 09:34:24,0.0
2828,-264,18924,-173,173,-201,2024-01-18 09:34:24,0.0
2676,-236,18980,-179,180,-174,2024-01-18 09:34:24,0.0
2644,-244,19112,-154,155,-183,2024-01-18 09:34:24,0.0
2756,-276,18840,-176,192,-201,2024-01-18 09:34:24,0.0
2780,-320,18972,-168,189,-193,2024-01-18 09:34:24,0.0
2740,-320,18892,-148,193,-163,2024-01-18 09:34:25,0.0
2796,-288,18756,-182,205,-174,2024-01-18 09:34:25,0.0
2696,-360,18940,-166,194,-196,2024-01-18 09:34:25,0.0
2780,-444,18964,-163,191,-189,2024-01-18 09:34:25,0.0
2784,-268,19020,-170,172,-183,2024-01-18 09:34:25,0.0
2740,-236,19020,-160,209,-191,2024-01-18 09:34:25,0.0
2708,-288,19160,-198,196,-184,2024-01-18 09:34:25,0.0
2784,-300,18952,-158,179,-180,2024-01-18 09:34:25,0.0
2776,-280,18948,-156,206,-189,2024-01-18 09:34:25,0.0
2784,-352,18992,-173,199,-189,2024-01-18 09:34:25,0.0
2716,-308,19112,-135,203,-177,2024-01-18 09:34:25,0.0
2740,-236,18956,-185,191,-193,2024-01-18 09:34:25,0.0
2708,-244,19028,-169,179,-180,2024-01-18 09:34:25,0.0
2784,-276,18984,-152,184,-165,2024-01-18 09:34:25,0.0
2800,-256,19064,-177,181,-167,2024-01-18 09:34:25,0.0
2672,-308,18960,-182,181,-185,2024-01-18 09:34:25,0.0
2784,-252,19032,-172,206,-195,2024-01-18 09:34:25,0.0
2752,-352,19032,-171,193,-168,2024-01-18 09:34:25,0.0
2712,-344,18852,-160,198,-191,2024-01-18 09:34:25,0.0
2712,-304,18848,-179,177,-179,2024-01-18 09:34:25,0.0
2756,-340,18956,-185,198,-175,2024-01-18 09:34:25,0.0
2812,-336,19060,-162,184,-172,2024-01-18 09:34:25,0.0
2740,-236,18988,-164,201,-181,2024-01-18 09:34:25,0.0
2784,-316,19032,-171,178,-187,2024-01-18 09:34:25,0.0
2740,-292,18868,-165,210,-188,2024-01-18 09:34:25,0.0
2796,-248,19052,-193,215,-181,2024-01-18 09:34:25,0.0
2740,-368,18876,-182,189,-186,2024-01-18 09:34:25,0.0
2724,-292,18744,-180,188,-189,2024-01-18 09:34:25,0.0
2792,-320,19160,-161,212,-164,2024-01-18 09:34:25,0.0
2696,-320,18864,-155,183,-180,2024-01-18 09:34:25,0.0
2628,-260,19000,-179,188,-184,2024-01-18 09:34:25,0.0
2784,-324,19040,-174,183,-195,2024-01-18 09:34:25,0.0
2764,-352,19076,-187,177,-170,2024-01-18 09:34:25,0.0
2752,-252,19048,-159,192,-170,2024-01-18 09:34:25,0.0
2664,-308,19060,-182,200,-186,2024-01-18 09:34:25,0.0
2720,-236,18948,-157,177,-177,2024-01-18 09:34:25,0.0
2692,-216,18896,-150,183,-204,2024-01-18 09:34:25,0.0
2756,-292,19048,-196,197,-175,2024-01-18 09:34:25,0.0
2764,-304,19044,-178,205,-181,2024-01-18 09:34:25,0.0
2576,-264,19016,-164,184,-193,2024-01-18 09:34:25,0.0
2732,-320,18872,-173,174,-176,2024-01-18 09:34:25,0.0
2768,-292,18928,-161,189,-168,2024-01-18 09:34:25,0.0
2680,-256,19068,-161,191,-195,2024-01-18 09:34:25,0.0
2704,-260,19028,-158,192,-181,2024-01-18 09:34:25,0.0
2684,-192,18960,-180,188,-189,2024-01-18 09:34:25,0.0
2716,-200,18808,-165,186,-172,2024-01-18 09:34:25,0.0
2704,-300,18908,-172,190,-185,2024-01-18 09:34:25,0.0
2728,-332,19172,-147,195,-180,2024-01-18 09:34:25,0.0
2732,-256,18928,-153,189,-201,2024-01-18 09:34:25,0.0
2724,-284,18996,-167,194,-169,2024-01-18 09:34:25,0.0
2788,-192,18888,-185,201,-189,2024-01-18 09:34:25,0.0
2748,-256,19024,-167,180,-179,2024-01-18 09:34:25,0.0
2764,-324,18960,-159,199,-173,2024-01-18 09:34:25,0.0
2700,-224,18952,-160,204,-183,2024-01-18 09:34:25,0.0
2736,-224,18888,-172,186,-187,2024-01-18 09:34:25,0.0
2724,-440,19104,-184,181,-184,2024-01-18 09:34:25,0.0
2740,-344,18984,-163,199,-192,2024-01-18 09:34:25,0.0
2760,-280,18996,-170,164,-180,2024-01-18 09:34:25,0.0
2708,-320,18976,-151,194,-190,2024-01-18 09:34:26,0.0
2760,-168,19052,-160,198,-195,2024-01-18 09:34:26,0.0
2780,-268,19044,-169,193,-171,2024-01-18 09:34:26,0.0
2744,-312,18864,-191,182,-175,2024-01-18 09:34:26,0.0
2792,-228,19024,-134,196,-191,2024-01-18 09:34:26,0.0
2740,-388,19012,-170,196,-194,2024-01-18 09:34:26,0.0
2672,-328,18916,-177,178,-172,2024-01-18 09:34:26,0.0
2800,-264,19068,-171,180,-175,2024-01-18 09:34:26,0.0
2780,-244,19000,-172,198,-183,2024-01-18 09:34:26,0.0
2712,-256,18952,-169,215,-178,2024-01-18 09:34:26,0.0
2820,-272,18944,-196,201,-180,2024-01-18 09:34:26,0.0
2744,-360,19012,-157,184,-192,2024-01-18 09:34:26,0.0
2744,-232,19040,-165,195,-175,2024-01-18 09:34:26,0.0
2768,-292,18972,-151,185,-177,2024-01-18 09:34:26,0.0
2752,-352,19032,-167,190,-172,2024-01-18 09:34:26,0.0
2768,-304,19048,-174,193,-189,2024-01-18 09:34:26,0.0
2796,-236,18872,-153,164,-167,2024-01-18 09:34:26,0.0
2764,-272,19072,-166,199,-177,2024-01-18 09:34:26,0.0
2704,-192,18864,-175,196,-176,2024-01-18 09:34:26,0.0
2696,-236,18892,-151,184,-193,2024-01-18 09:34:26,0.0
2736,-348,18940,-165,189,-203,2024-01-18 09:34:26,0.0
2768,-244,19044,-152,183,-190,2024-01-18 09:34:26,0.0
2704,-172,19020,-192,183,-182,2024-01-18 09:34:26,0.0
2688,-308,19056,-172,185,-169,2024-01-18 09:34:26,0.0
2744,-332,18984,-160,216,-189,2024-01-18 09:34:26,0.0
2748,-328,19016,-188,192,-178,2024-01-18 09:34:26,0.0
2776,-304,19040,-168,178,-171,2024-01-18 09:34:26,0.0
2824,-304,19044,-161,188,-178,2024-01-18 09:34:26,0.0
2772,-188,18928,-167,238,-208,2024-01-18 09:34:26,0.0
2732,-240,19020,-159,193,-183,2024-01-18 09:34:26,0.0
2600,-208,18932,-164,207,-182,2024-01-18 09:34:26,0.0
2668,-308,19076,-164,192,-162,2024-01-18 09:34:26,
2740,-264,19108,-158,175,-185,2024-01-18 09:34:26,0.0
2696,-228,18872,-154,195,-171,2024-01-18 09:34:26,0.0
2812,-212,18892,-142,191,-178,2024-01-18 09:34:26,0.0
2692,-248,19128,-179,178,-166,2024-01-18 09:34:26,0.0
2764,-316,18980,-150,210,-177,2024-01-18 09:34:26,0.0
2648,-292,18844,-158,179,-169,2024-01-18 09:34:26,0.0
2784,-304,18968,-196,186,-162,2024-01-18 09:34:26,0.0
2800,-304,19108,-140,207,-166,2024-01-18 09:34:26,0.0
2696,-280,19008,-179,177,-177,2024-01-18 09:34:26,0.0
2732,-248,18888,-181,195,-176,2024-01-18 09:34:26,0.0
2772,-296,19020,-165,190,-171,2024-01-18 09:34:26,0.0
2728,-192,19076,-179,191,-193,2024-01-18 09:34:26,0.0
2784,-308,19036,-178,186,-187,2024-01-18 09:34:26,0.0
2768,-216,18904,-151,191,-169,2024-01-18 09:34:26,0.0
2704,-344,19032,-181,203,-171,2024-01-18 09:34:26,0.0
2728,-228,18996,-165,186,-185,2024-01-18 09:34:26,0.0
2732,-256,19028,-193,191,-180,2024-01-18 09:34:26,0.0
2776,-388,18964,-174,192,-173,2024-01-18 09:34:26,0.0
2696,-324,18952,-183,197,-181,2024-01-18 09:34:26,0.0
2820,-276,18892,-197,212,-202,2024-01-18 09:34:26,0.0
2736,-308,18936,-181,199,-173,2024-01-18 09:34:26,0.0
2792,-328,18956,-169,165,-180,2024-01-18 09:34:26,0.0
2740,-276,19036,-158,208,-193,2024-01-18 09:34:26,0.0
2660,-372,18856,-157,176,-175,2024-01-18 09:34:26,0.0
2700,-364,18992,-169,178,-174,2024-01-18 09:34:26,0.0
2732,-272,19080,-160,177,-176,2024-01-18 09:34:26,0.0
2820,-272,18884,-199,190,-193,2024-01-18 09:34:26,0.0
2692,-348,18888,-165,195,-180,2024-01-18 09:34:26,0.0
2804,-288,19000,-150,194,-169,2024-01-18 09:34:27,0.0
2740,-368,19176,-166,202,-190,2024-01-18 09:34:27,0.0
2692,-232,18992,-153,183,-194,2024-01-18 09:34:27,0.0
2752,-308,19104,-169,192,-184,2024-01-18 09:34:27,0.0
2748,-264,18872,-162,205,-195,2024-01-18 09:34:27,0.0
2708,-256,18996,-179,188,-186,2024-01-18 09:34:27,0.0
2744,-264,18912,-165,190,-196,2024-01-18 09:34:27,0.0
2696,-348,19108,-179,175,-188,2024-01-18 09:34:27,0.0
2752,-172,19028,-168,198,-177,2024-01-18 09:34:27,0.0
2828,-216,18976,-163,202,-172,2024-01-18 09:34:27,0.0
2776,-220,18884,-174,210,-165,2024-01-18 09:34:27,0.0
2804,-316,18932,-149,204,-166,2024-01-18 09:34:27,0.0
2752,-288,18828,-168,188,-166,2024-01-18 09:34:27,0.0
2740,-276,18900,-168,190,-176,2024-01-18 09:34:27,0.0
2696,-288,18904,-158,219,-177,2024-01-18 09:34:27,0.0
2872,-264,19000,-150,206,-190,2024-01-18 09:34:27,0.0
2716,-244,18988,-160,192,-186,2024-01-18 09:34:27,0.0
2796,-344,18888,-186,188,-177,2024-01-18 09:34:27,0.0
2724,-316,18936,-173,180,-168,2024-01-18 09:34:27,0.0
2668,-348,18980,-166,189,-171,2024-01-18 09:34:27,0.0
2664,-332,18948,-182,202,-191,2024-01-18 09:34:27,0.0
2724,-324,18968,-159,182,-171,2024-01-18 09:34:27,0.0
2680,-332,18988,-159,210,-188,2024-01-18 09:34:27,0.0
2804,-208,19004,-177,191,-175,2024-01-18 09:34:27,0.0
2744,-276,18836,-158,183,-199,2024-01-18 09:34:27,0.0
2684,-248,19012,-175,177,-172,2024-01-18 09:34:27,0.0
2728,-260,18940,-175,185,-174,2024-01-18 09:34:27,0.0
2872,-264,18868,-158,194,-180,2024-01-18 09:34:27,0.0
2736,-252,19044,-140,197,-220,2024-01-18 09:34:27,0.0
2732,-268,18996,-157,180,-165,2024-01-18 09:34:27,0.0
2752,-272,18952,-138,222,-197,2024-01-18 09:34:27,0.0
2760,-336,19052,-151,188,-193,2024-01-18 09:34:27,0.0
2664,-208,18964,-170,178,-186,2024-01-18 09:34:27,0.0
2748,-348,19052,-209,206,-191,2024-01-18 09:34:27,0.0
2652,-304,18876,-166,172,-176,2024-01-18 09:34:27,0.0
2724,-292,18876,-165,202,-166,2024-01-18 09:34:27,0.0
2708,-328,18948,-161,205,-213,2024-01-18 09:34:27,0.0
2716,-272,18996,-185,185,-175,2024-01-18 09:34:27,0.0
2736,-400,19024,-170,179,-173,2024-01-18 09:34:27,0.0
2816,-312,18836,-157,193,-171,2024-01-18 09:34:27,0.0
2612,-224,19116,-188,208,-187,2024-01-18 09:34:27,0.0
2736,-280,18968,-151,184,-204,2024-01-18 09:34:27,0.0
2744,-224,18944,-168,191,-186,2024-01-18 09:34:27,0.0
2688,-364,19052,-168,187,-172,2024-01-18 09:34:27,0.0
2740,-268,18956,-156,175,-202,2024-01-18 09:34:27,0.0
2756,-348,18964,-206,194,-187,2024-01-18 09:34:27,0.0
2796,-196,18912,-178,189,-185,2024-01-18 09:34:27,0.0
2740,-328,19008,-164,186,-189,2024-01-18 09:34:27,0.0
2736,-268,18884,-200,184,-181,2024-01-18 09:34:27,0.0
2804,-284,19240,-173,189,-177,2024-01-18 09:34:27,0.0
2824,-320,18908,-167,179,-171,2024-01-18 09:34:27,0.0
2768,-296,19028,-176,182,-174,2024-01-18 09:34:27,0.0
2708,-400,18892,-186,159,-176,2024-01-18 09:34:27,0.0
2812,-312,18964,-148,192,-201,2024-01-18 09:34:27,0.0
2776,-248,18936,-185,212,-176,2024-01-18 09:34:27,0.0
2744,-248,19012,-131,209,-193,2024-01-18 09:34:27,0.0
2704,-248,18976,-161,175,-184,2024-01-18 09:34:27,0.0
2820,-276,19072,-163,189,-183,2024-01-18 09:34:27,0.0
2736,-252,19148,-176,183,-162,2024-01-18 09:34:27,0.0
2696,-288,19080,-169,186,-184,2024-01-18 09:34:28,0.0
2660,-308,18888,-168,198,-160,2024-01-18 09:34:28,0.0
2700,-204,18976,-163,202,-182,2024-01-18 09:34:28,0.0
2764,-320,19124,-178,199,-187,2024-01-18 09:34:28,0.0
2752,-288,18872,-179,165,-196,2024-01-18 09:34:28,0.0
2800,-224,19124,-184,213,-175,2024-01-18 09:34:28,0.0
2712,-288,18932,-212,177,-158,2024-01-18 09:34:28,0.0
2820,-256,18988,-139,196,-185,2024-01-18 09:34:28,0.0
2776,-256,19060,-166,208,-170,2024-01-18 09:34:28,0.0
2780,-252,19072,-166,164,-188,2024-01-18 09:34:28,0.0
2692,-256,18916,-174,208,-185,2024-01-18 09:34:28,0.0
2780,-272,18924,-179,193,-184,2024-01-18 09:34:28,0.0
2724,-356,19032,-164,193,-184,2024-01-18 09:34:28,
2784,-312,18924,-182,197,-162,2024-01-18 09:34:28,0.0
2708,-308,18860,-177,220,-171,2024-01-18 09:34:28,0.0
2888,-196,18976,-174,203,-187,2024-01-18 09:34:28,0.0
2748,-328,19056,-168,184,-198,2024-01-18 09:34:28,0.0
2720,-308,19032,-166,189,-184,2024-01-18 09:34:28,0.0
2752,-304,18932,-180,179,-200,2024-01-18 09:34:28,0.0
2692,-288,19016,-171,172,-179,2024-01-18 09:34:28,0.0
2704,-352,19008,-154,201,-180,2024-01-18 09:34:28,0.0
2704,-284,18880,-181,208,-191,2024-01-18 09:34:28,0.0
2660,-228,18916,-168,196,-176,2024-01-18 09:34:28,0.0
2656,-288,18804,-159,179,-185,2024-01-18 09:34:28,0.0
2696,-276,18976,-156,190,-189,2024-01-18 09:34:28,0.0
2772,-344,19176,-177,203,-174,2024-01-18 09:34:28,0.0
2744,-188,18780,-162,184,-183,2024-01-18 09:34:28,0.0
2804,-304,19020,-173,190,-183,2024-01-18 09:34:28,0.0
2664,-280,19020,-166,165,-186,2024-01-18 09:34:28,0.0
2760,-276,18900,-176,193,-191,2024-01-18 09:34:28,0.0
2664,-364,19052,-196,206,-195,2024-01-18 09:34:28,0.0
2800,-228,18892,-181,189,-177,2024-01-18 09:34:28,0.0
2692,-308,18972,-184,189,-180,2024-01-18 09:34:28,0.0
2780,-280,18812,-163,185,-193,2024-01-18 09:34:28,0.0
2724,-244,19004,-176,185,-164,2024-01-18 09:34:28,0.0
2660,-360,18928,-148,179,-175,2024-01-18 09:34:28,0.0
2788,-288,18948,-160,173,-183,2024-01-18 09:34:28,0.0
2724,-316,18912,-167,170,-191,2024-01-18 09:34:28,0.0
2712,-356,18916,-174,197,-176,2024-01-18 09:34:28,0.0
2832,-292,19060,-171,189,-149,2024-01-18 09:34:28,0.0
2760,-256,18908,-154,172,-200,2024-01-18 09:34:28,0.0
2740,-276,18916,-176,189,-169,2024-01-18 09:34:28,0.0
2728,-268,18964,-168,177,-158,2024-01-18 09:34:28,0.0
2684,-320,19104,-147,180,-181,2024-01-18 09:34:28,0.0
2828,-212,18812,-167,193,-178,2024-01-18 09:34:28,0.0
2764,-264,19028,-177,188,-184,2024-01-18 09:34:28,0.0
2676,-292,18880,-193,207,-181,2024-01-18 09:34:28,0.0
2704,-376,19028,-175,184,-189,2024-01-18 09:34:28,0.0
2748,-252,18940,-168,191,-179,2024-01-18 09:34:28,0.0
2756,-176,18916,-172,196,-195,2024-01-18 09:34:28,0.0
2648,-332,18940,-181,187,-176,2024-01-18 09:34:28,0.0
2752,-280,18992,-181,196,-191,2024-01-18 09:34:28,0.0
2656,-188,19020,-173,183,-164,2024-01-18 09:34:28,0.0
2752,-300,18980,-198,197,-171,2024-01-18 09:34:28,0.0
2664,-292,18992,-166,189,-184,2024-01-18 09:34:28,0.0
2732,-308,19008,-161,197,-166,2024-01-18 09:34:28,0.0
2744,-296,18908,-149,168,-186,2024-01-18 09:34:28,0.0
2748,-368,18976,-179,208,-175,2024-01-18 09:34:28,0.0
2748,-292,18932,-154,211,-172,2024-01-18 09:34:28,0.0
2724,-288,19064,-194,185,-177,2024-01-18 09:34:29,0.0
2724,-208,19052,-180,196,-194,2024-01-18 09:34:29,0.0
2852,-232,18884,-184,183,-190,2024-01-18 09:34:29,0.0
2716,-308,18996,-175,186,-175,2024-01-18 09:34:29,0.0
2696,-372,19124,-167,219,-184,2024-01-18 09:34:29,0.0
2756,-316,18968,-170,195,-193,2024-01-18 09:34:29,0.0
2720,-288,19060,-141,194,-182,2024-01-18 09:34:29,0.0
2772,-332,19036,-177,186,-187,2024-01-18 09:34:29,0.0
2792,-264,18852,-182,192,-182,2024-01-18 09:34:29,0.0
2764,-304,19020,-150,197,-162,2024-01-18 09:34:29,0.0
2756,-316,18996,-167,205,-183,2024-01-18 09:34:29,0.0
2812,-268,19032,-175,198,-181,2024-01-18 09:34:29,0.0
2764,-300,18988,-141,225,-169,2024-01-18 09:34:29,0.0
2780,-260,19052,-180,165,-194,2024-01-18 09:34:29,0.0
2820,-364,18996,-149,194,-206,2024-01-18 09:34:29,0.0
2756,-256,19052,-165,188,-187,2024-01-18 09:34:29,0.0
2756,-352,18956,-183,181,-185,2024-01-18 09:34:29,0.0
2804,-312,18988,-152,203,-205,2024-01-18 09:34:29,0.0
2728,-248,18948,-183,184,-173,2024-01-18 09:34:29,0.0
2816,-296,19016,-181,191,-185,2024-01-18 09:34:29,0.0
2688,-156,18824,-176,187,-174,2024-01-18 09:34:29,0.0
2796,-280,18976,-168,195,-182,2024-01-18 09:34:29,0.0
2644,-340,19088,-168,197,-187,2024-01-18 09:34:29,0.0
2756,-332,18868,-163,177,-191,2024-01-18 09:34:29,0.0
2756,-232,18976,-175,185,-164,2024-01-18 09:34:29,0.0
2688,-276,19024,-169,194,-173,2024-01-18 09:34:29,0.0
2692,-264,19004,-155,183,-171,2024-01-18 09:34:29,0.0
2664,-224,18816,-154,181,-185,2024-01-18 09:34:29,0.0
2736,-252,19008,-162,183,-181,2024-01-18 09:34:29,0.0
2840,-216,19068,-180,208,-179,2024-01-18 09:34:29,0.0
2824,-360,18972,-169,189,-171,2024-01-18 09:34:29,0.0
2660,-272,18912,-182,173,-184,2024-01-18 09:34:29,0.0
2712,-320,19048,-201,198,-195,2024-01-18 09:34:29,0.0
2688,-276,18968,-164,196,-193,2024-01-18 09:34:29,0.0
2776,-256,18916,-163,184,-175,2024-01-18 09:34:29,0.0
2740,-276,18900,-162,188,-176,2024-01-18 09:34:29,0.0
2776,-300,19044,-193,202,-193,2024-01-18 09:34:29,0.0
2760,-324,19044,-198,187,-165,2024-01-18 09:34:29,0.0
2700,-304,19024,-183,173,-186,2024-01-18 09:34:29,0.0
2620,-328,18996,-193,201,-199,2024-01-18 09:34:29,0.0
2716,-224,18944,-156,199,-180,2024-01-18 09:34:29,0.0
2676,-308,18912,-181,192,-185,2024-01-18 09:34:29,0.0
2712,-292,18792,-167,187,-188,2024-01-18 09:34:29,0.0
2820,-312,18972,-171,181,-182,2024-01-18 09:34:29,0.0
2748,-352,19048,-159,199,-169,2024-01-18 09:34:29,0.0
2656,-296,18932,-183,192,-168,2024-01-18 09:34:29,0.0
2764,-236,19144,-153,206,-180,2024-01-18 09:34:29,0.0
2704,-292,19108,-175,177,-188,2024-01-18 09:34:29,0.0
2684,-348,18956,-165,194,-194,2024-01-18 09:34:29,0.0
2680,-284,18960,-164,194,-198,2024-01-18 09:34:29,0.0
2780,-332,19008,-167,202,-192,2024-01-18 09:34:29,0.0
2696,-288,19024,-189,209,-181,2024-01-18 09:34:29,0.0
2708,-312,18992,-168,185,-169,2024-01-18 09:34:29,0.0
2640,-312,18980,-147,196,-170,2024-01-18 09:34:29,
2756,-240,18988,-168,196,-178,2024-01-18 09:34:29,0.0
2724,-332,18868,-181,205,-191,2024-01-18 09:34:29,0.0
2784,-228,18924,-163,193,-197,2024-01-18 09:34:29,0.0
2744,-252,18864,-167,194,-192,2024-01-18 09:34:29,0.0
2676,-340,19152,-138,194,-195,2024-01-18 09:34:29,0.0
2728,-340,18896,-168,201,-193,2024-01-18 09:34:30,0.0
2684,-336,18968,-154,215,-173,2024-01-18 09:34:30,0.0
2664,-288,18876,-170,177,-177,2024-01-18 09:34:30,0.0
2732,-284,18932,-169,197,-192,2024-01-18 09:34:30,0.0
2748,-324,18960,-190,201,-195,2024-01-18 09:34:30,0.0
2764,-228,18900,-192,200,-177,2024-01-18 09:34:30,0.0
2724,-272,18844,-166,204,-171,2024-01-18 09:34:30,0.0
2728,-332,18904,-145,170,-176,2024-01-18 09:34:30,0.0
2680,-352,18948,-164,180,-180,2024-01-18 09:34:30,0.0
2812,-296,19140,-173,180,-193,2024-01-18 09:34:30,0.0
2764,-276,18964,-158,186,-178,2024-01-18 09:34:30,0.0
2756,-284,19020,-170,183,-177,2024-01-18 09:34:30,0.0
2776,-304,18872,-180,177,-189,2024-01-18 09:34:30,0.0
2784,-240,18988,-149,196,-198,2024-01-18 09:34:30,0.0
2628,-308,18976,-152,195,-175,2024-01-18 09:34:30,0.0
2728,-348,18964,-155,198,-189,2024-01-18 09:34:30,0.0
2732,-320,19068,-151,177,-183,2024-01-18 09:34:30,0.0
2752,-276,18932,-171,199,-170,2024-01-18 09:34:30,0.0
2724,-332,18912,-175,177,-169,2024-01-18 09:34:30,0.0
2720,-308,19072,-175,202,-168,2024-01-18 09:34:30,0.0
2760,-264,18960,-157,191,-171,2024-01-18 09:34:30,0.0
2728,-308,18968,-182,188,-176,2024-01-18 09:34:30,0.0
2796,-268,18996,-157,200,-191,2024-01-18 09:34:30,0.0
2688,-320,19020,-166,185,-181,2024-01-18 09:34:30,0.0
2652,-300,18856,-173,179,-170,2024-01-18 09:34:30,0.0
2636,-296,18764,-157,176,-188,2024-01-18 09:34:30,0.0
2760,-344,19088,-172,200,-193,2024-01-18 09:34:30,0.0
2752,-244,19084,-161,174,-165,2024-01-18 09:34:30,0.0
2736,-192,19040,-186,188,-186,2024-01-18 09:34:30,0.0
2732,-232,19016,-165,193,-166,2024-01-18 09:34:30,0.0
2620,-340,19040,-193,190,-197,2024-01-18 09:34:30,0.0
2652,-360,19012,-187,182,-188,2024-01-18 09:34:30,0.0
2804,-288,19016,-167,199,-185,2024-01-18 09:34:30,0.0
2776,-268,18808,-158,171,-183,2024-01-18 09:34:30,0.0
2708,-240,18896,-176,181,-190,2024-01-18 09:34:30,0.0
2772,-316,19040,-165,177,-190,2024-01-18 09:34:30,0.0
2732,-296,19012,-179,194,-176,2024-01-18 09:34:30,0.0
2728,-320,19012,-167,200,-184,2024-01-18 09:34:30,0.0
2744,-364,18940,-162,199,-177,2024-01-18 09:34:30,0.0
2680,-376,18952,-169,202,-183,2024-01-18 09:34:30,0.0
2692,-348,19016,-169,185,-200,2024-01-18 09:34:30,0.0
2660,-368,18956,-158,192,-178,2024-01-18 09:34:30,0.0
2772,-332,18856,-196,200,-171,2024-01-18 09:34:30,0.0
2768,-316,19072,-174,192,-199,2024-01-18 09:34:30,0.0
2744,-380,19028,-181,179,-180,2024-01-18 09:34:30,0.0
2736,-264,19012,-158,169,-177,2024-01-18 09:34:30,0.0
2772,-328,19032,-152,190,-172,2024-01-18 09:34:30,0.0
2780,-244,18856,-172,184,-187,2024-01-18 09:34:30,0.0
2784,-232,18888,-157,194,-173,2024-01-18 09:34:30,0.0
2844,-372,19076,-149,183,-196,2024-01-18 09:34:30,0.0
2736,-292,19000,-174,192,-199,2024-01-18 09:34:30,0.0
2704,-220,18976,-161,187,-158,2024-01-18 09:34:30,0.0
2732,-324,19024,-157,185,-185,2024-01-18 09:34:30,0.0
2652,-184,18956,-171,180,-207,2024-01-18 09:34:30,0.0
2696,-300,19176,-178,194,-163,2024-01-18 09:34:30,0.0
2724,-296,18880,-182,195,-192,2024-01-18 09:34:30,0.0
2756,-256,19056,-196,181,-195,2024-01-18 09:34:30,0.0
2644,-268,19028,-165,202,-162,2024-01-18 09:34:30,0.0
2756,-276,19036,-195,197,-187,2024-01-18 09:34:30,0.0
2740,-200,18984,-170,197,-178,2024-01-18 09:34:30,0.0
2716,-320,18920,-173,192,-184,2024-01-18 09:34:31,0.0
2724,-224,19068,-188,217,-200,2024-01-18 09:34:31,0.0
2764,-252,19048,-164,184,-192,2024-01-18 09:34:31,0.0
2636,-292,19020,-170,212,-176,2024-01-18 09:34:31,0.0
2812,-308,19020,-163,190,-173,2024-01-18 09:34:31,0.0
2668,-320,18956,-197,209,-201,2024-01-18 09:34:31,0.0
2720,-376,18972,-165,181,-207,2024-01-18 09:34:31,0.0
2688,-268,18996,-151,192,-169,2024-01-18 09:34:31,0.0
2708,-312,18928,-177,207,-209,2024-01-18 09:34:31,0.0
2716,-216,18860,-175,205,-188,2024-01-18 09:34:31,0.0
2624,-256,18900,-175,193,-185,2024-01-18 09:34:31,0.0
2784,-284,18952,-168,182,-182,2024-01-18 09:34:31,0.0
2776,-332,18832,-161,203,-168,2024-01-18 09:34:31,0.0
2688,-300,18932,-191,167,-178,2024-01-18 09:34:31,0.0
2760,-268,19100,-178,197,-184,2024-01-18 09:34:31,0.0
2728,-356,19000,-180,173,-162,2024-01-18 09:34:31,0.0
2832,-268,18928,-161,164,-179,2024-01-18 09:34:31,0.0
2668,-244,19040,-189,183,-185,2024-01-18 09:34:31,0.0
2804,-188,19052,-171,187,-177,2024-01-18 09:34:31,0.0
2744,-232,18932,-185,190,-168,2024-01-18 09:34:31,0.0
2744,-352,18856,-177,208,-175,2024-01-18 09:34:31,0.0
2720,-300,19004,-160,198,-166,2024-01-18 09:34:31,0.0
2820,-212,18944,-155,187,-179,2024-01-18 09:34:31,0.0
2756,-268,19004,-136,192,-176,2024-01-18 09:34:31,0.0
2728,-248,18912,-166,199,-169,2024-01-18 09:34:31,0.0
2812,-348,19092,-188,204,-172,2024-01-18 09:34:31,0.0
2716,-240,18888,-177,204,-168,2024-01-18 09:34:31,0.0
2684,-268,18952,-162,174,-182,2024-01-18 09:34:31,0.0
2724,-304,18880,-183,193,-188,2024-01-18 09:34:31,0.0
2728,-352,18940,-170,203,-189,2024-01-18 09:34:31,0.0
2764,-316,18960,-186,198,-175,2024-01-18 09:34:31,0.0
2668,-296,19028,-153,179,-207,2024-01-18 09:34:31,0.0
2720,-232,19056,-174,198,-189,2024-01-18 09:34:31,0.0
2808,-172,18872,-176,194,-169,2024-01-18 09:34:31,0.0
2716,-244,18956,-158,183,-177,2024-01-18 09:34:31,
2636,-280,18956,-163,185,-178,2024-01-18 09:34:31,0.0
2724,-224,18936,-164,215,-194,2024-01-18 09:34:31,0.0
2748,-228,19116,-179,213,-191,2024-01-18 09:34:31,0.0
2816,-276,18956,-161,187,-188,2024-01-18 09:34:31,0.0
2716,-264,18944,-162,199,-172,2024-01-18 09:34:31,0.0
2628,-280,18944,-168,186,-163,2024-01-18 09:34:31,0.0
2732,-296,18968,-177,180,-197,2024-01-18 09:34:31,0.0
2792,-292,18948,-181,182,-195,2024-01-18 09:34:31,0.0
2696,-336,18920,-142,183,-172,2024-01-18 09:34:31,0.0
2648,-316,18924,-171,184,-173,2024-01-18 09:34:31,0.0
2804,-212,19108,-167,198,-167,2024-01-18 09:34:31,0.0
2756,-188,18960,-177,206,-183,2024-01-18 09:34:31,0.0
2768,-320,18924,-162,192,-197,2024-01-18 09:34:31,0.0
2812,-252,18876,-176,189,-173,2024-01-18 09:34:31,0.0
2604,-276,18984,-174,202,-175,2024-01-18 09:34:31,0.0
2668,-288,19128,-162,211,-188,2024-01-18 09:34:31,0.0
2756,-264,18936,-158,195,-178,2024-01-18 09:34:31,0.0
2768,-352,18796,-167,192,-182,2024-01-18 09:34:31,0.0
2728,-328,18916,-183,180,-203,2024-01-18 09:34:31,0.0
2656,-288,18920,-156,203,-172,2024-01-18 09:34:31,0.0
2600,-244,18960,-164,182,-194,2024-01-18 09:34:31,0.0
2732,-232,18780,-180,173,-203,2024-01-18 09:34:31,0.0
2708,-240,19076,-182,208,-167,2024-01-18 09:34:31,0.0
2880,-328,19008,-164,187,-187,2024-01-18 09:34:32,0.0
2776,-236,19008,-152,197,-168,2024-01-18 09:34:32,0.0
2764,-304,18936,-155,194,-185,2024-01-18 09:34:32,0.0
2764,-300,18984,-176,191,-200,2024-01-18 09:34:32,0.0
2764,-248,19128,-172,185,-191,2024-01-18 09:34:32,0.0
2796,-316,18900,-153,184,-198,2024-01-18 09:34:32,0.0
2788,-308,19020,-178,182,-186,2024-01-18 09:34:32,0.0
2688,-244,19020,-164,192,-197,2024-01-18 09:34:32,0.0
2696,-260,19052,-153,181,-168,2024-01-18 09:34:32,0.0
2784,-288,18868,-177,179,-187,2024-01-18 09:34:32,0.0
2672,-252,19052,-158,202,-159,2024-01-18 09:34:32,0.0
2764,-200,19028,-162,174,-189,2024-01-18 09:34:32,0.0
2688,-360,18968,-167,195,-195,2024-01-18 09:34:32,0.0
2680,-260,18956,-172,183,-177,2024-01-18 09:34:32,0.0
2800,-332,19040,-159,189,-183,2024-01-18 09:34:32,0.0
2760,-312,18968,-207,195,-156,2024-01-18 09:34:32,0.0
2684,-360,19008,-175,194,-199,2024-01-18 09:34:32,0.0
2712,-316,18808,-158,191,-174,2024-01-18 09:34:32,0.0
2828,-276,19080,-156,175,-181,2024-01-18 09:34:32,0.0
2756,-296,18916,-143,188,-191,2024-01-18 09:34:32,0.0
2768,-288,18980,-167,183,-189,2024-01-18 09:34:32,0.0
2740,-348,18824,-164,211,-184,2024-01-18 09:34:32,0.0
2652,-236,18960,-173,199,-191,2024-01-18 09:34:32,0.0
2756,-324,19040,-148,201,-176,2024-01-18 09:34:32,0.0
2704,-260,19064,-156,174,-192,2024-01-18 09:34:32,0.0
2752,-272,19036,-179,197,-173,2024-01-18 09:34:32,0.0
2664,-308,18972,-138,162,-184,2024-01-18 09:34:32,0.0
2824,-260,18808,-150,188,-191,2024-01-18 09:34:32,0.0
2724,-344,19116,-142,181,-187,2024-01-18 09:34:32,0.0
2732,-296,19064,-175,191,-197,2024-01-18 09:34:32,0.0
2732,-208,18904,-183,196,-176,2024-01-18 09:34:32,0.0
2588,-252,19004,-180,168,-202,2024-01-18 09:34:32,0.0
2792,-212,19008,-178,211,-194,2024-01-18 09:34:32,0.0
2744,-212,19084,-174,191,-187,2024-01-18 09:34:32,0.0
2760,-312,18984,-170,177,-176,2024-01-18 09:34:32,0.0
2716,-308,18808,-152,206,-173,2024-01-18 09:34:32,0.0
2676,-416,18984,-195,185,-192,2024-01-18 09:34:32,0.0
2824,-360,19072,-165,180,-178,2024-01-18 09:34:32,0.0
2840,-248,18944,-155,178,-165,2024-01-18 09:34:32,0.0
2736,-332,18964,-162,196,-192,2024-01-18 09:34:32,0.0
2668,-304,19012,-152,193,-183,2024-01-18 09:34:32,0.0
2708,-332,18904,-152,192,-190,2024-01-18 09:34:32,0.0
2716,-252,19036,-188,191,-172,2024-01-18 09:34:32,0.0
2704,-340,18984,-156,197,-174,2024-01-18 09:34:32,0.0
2692,-300,18936,-200,167,-166,2024-01-18 09:34:32,0.0
2776,-384,19084,-175,185,-176,2024-01-18 09:34:32,0.0
2688,-304,18952,-205,198,-175,2024-01-18 09:34:32,0.0
2664,-212,19008,-160,209,-180,2024-01-18 09:34:32,0.0
2800,-304,18924,-157,184,-197,2024-01-18 09:34:32,0.0
2612,-280,19008,-163,195,-182,2024-01-18 09:34:32,0.0
2668,-236,18940,-151,211,-185,2024-01-18 09:34:32,0.0
2740,-144,19020,-202,188,-156,2024-01-18 09:34:32,0.0
2688,-232,18992,-151,205,-172,2024-01-18 09:34:32,0.0
2788,-228,18928,-159,179,-179,2024-01-18 09:34:32,0.0
2816,-212,18984,-174,177,-178,2024-01-18 09:34:32,0.0
2704,-304,19064,-159,187,-175,2024-01-18 09:34:32,0.0
2628,-368,18880,-189,188,-176,2024-01-18 09:34:32,0.0
2820,-264,19000,-163,205,-191,2024-01-18 09:34:32,0.0
2680,-196,19000,-151,190,-170,2024-01-18 09:34:32,0.0
2880,-352,18980,-169,204,-177,2024-01-18 09:34:32,0.0
2688,-352,18920,-166,184,-175,2024-01-18 09:34:33,0.0
2716,-288,19076,-146,200,-201,2024-01-18 09:34:33,0.0
2768,-308,18920,-154,193,-190,2024-01-18 09:34:33,0.0
2816,-260,18992,-171,194,-161,2024-01-18 09:34:33,0.0
2824,-276,19008,-197,204,-171,2024-01-18 09:34:33,0.0
2736,-280,19068,-162,202,-197,2024-01-18 09:34:33,0.0
2652,-324,18960,-161,198,-183,2024-01-18 09:34:33,0.0
2736,-248,19088,-148,201,-179,2024-01-18 09:34:33,0.0
2740,-328,18960,-156,171,-167,2024-01-18 09:34:33,0.0
2656,-300,18872,-176,173,-167,2024-01-18 09:34:33,0.0
2736,-192,18884,-169,215,-157,2024-01-18 09:34:33,0.0
2756,-320,18932,-170,177,-185,2024-01-18 09:34:33,0.0
2784,-168,19112,-151,191,-191,2024-01-18 09:34:33,0.0
2800,-268,18964,-166,177,-174,2024-01-18 09:34:33,0.0
2728,-256,18976,-173,184,-177,2024-01-18 09:34:33,0.0
2752,-240,19024,-171,188,-179,2024-01-18 09:34:33,0.0
2768,-284,18992,-171,209,-184,2024-01-18 09:34:33,
2880,-316,18896,-160,184,-170,2024-01-18 09:34:33,0.0
2656,-328,19136,-154,186,-197,2024-01-18 09:34:33,0.0
2708,-304,18860,-173,198,-185,2024-01-18 09:34:33,0.0
2748,-312,18880,-161,199,-188,2024-01-18 09:34:33,0.0
2756,-296,18932,-200,177,-176,2024-01-18 09:34:33,0.0
2740,-280,18984,-184,198,-179,2024-01-18 09:34:33,0.0
2684,-316,18892,-173,194,-186,2024-01-18 09:34:33,0.0
2664,-232,18964,-164,198,-194,2024-01-18 09:34:33,0.0
2720,-288,18888,-183,180,-184,2024-01-18 09:34:33,0.0
2780,-296,19156,-143,193,-174,2024-01-18 09:34:33,0.0
2668,-372,19008,-146,179,-184,2024-01-18 09:34:33,0.0
2680,-212,19012,-187,189,-176,2024-01-18 09:34:33,0.0
2744,-244,19040,-154,204,-191,2024-01-18 09:34:33,0.0
2732,-128,18940,-177,194,-164,2024-01-18 09:34:33,0.0
2704,-304,18972,-170,197,-165,2024-01-18 09:34:33,0.0
2692,-280,18872,-165,197,-199,2024-01-18 09:34:33,0.0
2780,-332,18856,-181,184,-165,2024-01-18 09:34:33,0.0
2636,-284,19064,-164,195,-175,2024-01-18 09:34:33,0.0
2640,-304,19004,-151,171,-175,2024-01-18 09:34:33,0.0
2876,-328,18964,-162,211,-171,2024-01-18 09:34:33,0.0
2628,-336,18932,-162,186,-194,2024-01-18 09:34:33,0.0
2716,-332,18928,-183,186,-202,2024-01-18 09:34:33,0.0
2648,-184,18912,-174,190,-187,2024-01-18 09:34:33,0.0
2724,-344,18960,-144,158,-179,2024-01-18 09:34:33,0.0
2600,-324,18956,-157,180,-166,2024-01-18 09:34:33,0.0
2712,-272,19032,-153,202,-177,2024-01-18 09:34:33,0.0
2676,-360,18984,-181,194,-185,2024-01-18 09:34:33,0.0
2808,-272,18988,-159,215,-196,2024-01-18 09:34:33,0.0
2708,-324,18972,-172,208,-161,2024-01-18 09:34:33,0.0
2688,-284,18912,-141,194,-188,2024-01-18 09:34:33,0.0
2732,-368,18992,-174,183,-187,2024-01-18 09:34:33,0.0
2696,-284,19164,-178,201,-193,2024-01-18 09:34:33,0.0
2740,-300,18984,-163,191,-164,2024-01-18 09:34:33,0.0
2692,-340,19020,-180,202,-176,2024-01-18 09:34:33,0.0
2716,-276,18952,-169,192,-179,2024-01-18 09:34:33,0.0
2752,-340,18932,-164,167,-177,2024-01-18 09:34:33,0.0
2652,-400,19008,-158,192,-168,2024-01-18 09:34:33,0.0
2868,-236,18872,-158,203,-192,2024-01-18 09:34:33,0.0
2720,-320,18932,-186,156,-183,2024-01-18 09:34:33,0.0
2732,-272,18952,-185,185,-173,2024-01-18 09:34:33,0.0
2752,-316,18896,-169,180,-177,2024-01-18 09:34:33,0.0
2712,-324,19104,-169,185,-212,2024-01-18 09:34:33,0.0
2796,-356,19056,-179,189,-200,2024-01-18 09:34:34,0.0
2724,-284,18864,-163,218,-177,2024-01-18 09:34:34,0.0
2740,-308,18912,-195,203,-175,2024-01-18 09:34:34,0.0
2756,-272,18968,-184,174,-165,2024-01-18 09:34:34,0.0
2680,-188,19012,-181,195,-201,2024-01-18 09:34:34,0.0
2680,-232,18848,-165,193,-168,2024-01-18 09:34:34,0.0
2728,-232,19096,-181,180,-181,2024-01-18 09:34:34,0.0
2660,-252,18876,-156,215,-162,2024-01-18 09:34:34,0.0
2692,-304,18860,-184,197,-183,2024-01-18 09:34:34,0.0
2720,-228,18864,-141,191,-180,2024-01-18 09:34:34,0.0
2688,-308,18960,-185,178,-195,2024-01-18 09:34:34,0.0
2692,-260,18904,-173,198,-175,2024-01-18 09:34:34,0.0
2768,-276,18884,-171,201,-193,2024-01-18 09:34:34,0.0
2668,-284,18964,-176,199,-189,2024-01-18 09:34:34,0.0
2604,-300,18940,-176,223,-196,2024-01-18 09:34:34,0.0
2704,-212,19032,-183,194,-189,2024-01-18 09:34:34,0.0
2728,-348,19000,-180,188,-197,2024-01-18 09:34:34,0.0
2824,-192,19012,-174,180,-193,2024-01-18 09:34:34,0.0
2812,-276,18884,-162,185,-179,2024-01-18 09:34:34,0.0
2692,-268,18980,-171,194,-190,2024-01-18 09:34:34,0.0
2740,-324,19008,-165,166,-171,2024-01-18 09:34:34,0.0
2772,-212,18880,-149,190,-184,2024-01-18 09:34:34,0.0
2784,-304,18980,-169,195,-179,2024-01-18 09:34:34,0.0
2704,-336,19032,-168,209,-181,2024-01-18 09:34:34,0.0
2664,-316,19036,-144,202,-167,2024-01-18 09:34:34,0.0
2760,-280,18816,-141,171,-181,2024-01-18 09:34:34,0.0
2752,-372,18964,-162,166,-174,2024-01-18 09:34:34,0.0
2736,-252,19032,-143,190,-170,2024-01-18 09:34:34,0.0
2692,-260,18956,-168,195,-190,2024-01-18 09:34:34,0.0
2780,-260,19080,-158,176,-184,2024-01-18 09:34:34,0.0
2704,-376,19016,-185,177,-182,2024-01-18 09:34:34,0.0
2680,-340,18912,-159,187,-199,2024-01-18 09:34:34,0.0
2656,-312,18940,-174,205,-184,2024-01-18 09:34:34,0.0
2660,-288,19056,-173,197,-200,2024-01-18 09:34:34,0.0
2676,-300,19012,-182,204,-174,2024-01-18 09:34:34,0.0
2696,-308,18996,-156,176,-196,2024-01-18 09:34:34,0.0
2744,-344,19000,-177,191,-192,2024-01-18 09:34:34,0.0
2724,-236,18864,-180,178,-193,2024-01-18 09:34:34,0.0
2728,-304,19004,-165,202,-190,2024-01-18 09:34:34,0.0
2772,-236,19008,-154,199,-173,2024-01-18 09:34:34,0.0
2672,-252,18948,-165,194,-168,2024-01-18 09:34:34,0.0
2732,-256,18944,-171,184,-204,2024-01-18 09:34:34,0.0
2872,-276,19004,-172,218,-188,2024-01-18 09:34:34,0.0
2700,-292,19056,-179,204,-183,2024-01-18 09:34:34,0.0
2660,-380,19032,-160,201,-182,2024-01-18 09:34:34,0.0
2724,-384,18976,-176,182,-162,2024-01-18 09:34:34,0.0
2780,-300,18988,-183,176,-178,2024-01-18 09:34:34,0.0
2824,-260,18988,-159,181,-202,2024-01-18 09:34:34,0.0
2744,-264,19032,-156,208,-167,2024-01-18 09:34:34,0.0
2740,-288,18972,-180,193,-187,2024-01-18 09:34:34,0.0
2656,-312,19024,-155,190,-176,2024-01-18 09:34:34,0.0
2776,-300,18988,-150,175,-192,2024-01-18 09:34:34,0.0
2612,-328,19032,-153,187,-188,2024-01-18 09:34:34,0.0
2784,-396,19020,-178,183,-181,2024-01-18 09:34:34,0.0
2788,-296,18960,-187,202,-195,2024-01-18 09:34:34,0.0
2788,-220,19088,-163,174,-183,2024-01-18 09:34:34,0.0
2652,-260,18972,-193,214,-189,2024-01-18 09:34:34,0.0
2716,-352,18812,-171,201,-181,2024-01-18 09:34:34,
2724,-248,19048,-176,181,-171,2024-01-18 09:34:34,0.0
2732,-304,18996,-159,192,-190,2024-01-18 09:34:35,0.0
2684,-236,18784,-144,195,-152,2024-01-18 09:34:35,0.0
2664,-276,19060,-146,184,-169,2024-01-18 09:34:35,0.0
2824,-308,18996,-162,206,-179,2024-01-18 09:34:35,0.0
2696,-240,18912,-174,193,-189,2024-01-18 09:34:35,0.0
2632,-308,18872,-166,202,-191,2024-01-18 09:34:35,0.0
2712,-380,18912,-168,209,-167,2024-01-18 09:34:35,0.0
2720,-284,18896,-164,185,-197,2024-01-18 09:34:35,0.0
2728,-192,18892,-151,174,-173,2024-01-18 09:34:35,0.0
2752,-384,18932,-175,187,-177,2024-01-18 09:34:35,0.0
2688,-304,18984,-170,187,-182,2024-01-18 09:34:35,0.0
2680,-304,19028,-177,191,-193,2024-01-18 09:34:35,0.0
2708,-224,18996,-166,200,-189,2024-01-18 09:34:35,0.0
2736,-228,19044,-154,209,-162,2024-01-18 09:34:35,0.0
2784,-312,19084,-168,189,-186,2024-01-18 09:34:35,0.0
2696,-236,19084,-188,194,-180,2024-01-18 09:34:35,0.0
2652,-296,18920,-157,207,-182,2024-01-18 09:34:35,0.0
2704,-324,18852,-177,200,-169,2024-01-18 09:34:35,0.0
2624,-284,18960,-170,194,-171,2024-01-18 09:34:35,0.0
2776,-252,19036,-179,193,-175,2024-01-18 09:34:35,0.0
2676,-248,19080,-158,184,-170,2024-01-18 09:34:35,0.0
2740,-236,18800,-165,179,-176,2024-01-18 09:34:35,0.0
2656,-212,18948,-166,194,-195,2024-01-18 09:34:35,0.0
2720,-360,18932,-199,181,-174,2024-01-18 09:34:35,0.0
2672,-276,19116,-193,188,-198,2024-01-18 09:34:35,0.0
2636,-260,18936,-166,196,-174,2024-01-18 09:34:35,0.0
2716,-320,18880,-144,178,-183,2024-01-18 09:34:35,0.0
2760,-264,19036,-164,183,-190,2024-01-18 09:34:35,0.0
2760,-240,19000,-185,191,-179,2024-01-18 09:34:35,0.0
2800,-296,18924,-169,197,-189,2024-01-18 09:34:35,0.0
2792,-228,18916,-166,191,-172,2024-01-18 09:34:35,0.0
2696,-276,18876,-181,191,-185,2024-01-18 09:34:35,0.0
2728,-320,18992,-178,181,-198,2024-01-18 09:34:35,0.0
2828,-268,19000,-154,189,-181,2024-01-18 09:34:35,0.0
2804,-348,18952,-176,182,-181,2024-01-18 09:34:35,0.0
2716,-284,18976,-156,176,-193,2024-01-18 09:34:35,0.0
2680,-316,18916,-161,187,-188,2024-01-18 09:34:35,0.0
2780,-404,18900,-175,199,-173,2024-01-18 09:34:35,0.0
2648,-252,19052,-157,191,-193,2024-01-18 09:34:35,0.0
2820,-344,18856,-153,195,-156,2024-01-18 09:34:35,0.0
2740,-260,19004,-165,181,-172,2024-01-18 09:34:35,0.0
2692,-372,18896,-172,189,-174,2024-01-18 09:34:35,0.0
2736,-208,19164,-156,183,-187,2024-01-18 09:34:35,0.0
2784,-356,18984,-163,206,-170,2024-01-18 09:34:35,0.0
2776,-328,18884,-169,184,-179,2024-01-18 09:34:35,0.0
2788,-320,18904,-191,171,-175,2024-01-18 09:34:35,0.0
2732,-316,18976,-162,198,-189,2024-01-18 09:34:35,0.0
2660,-288,19060,-183,183,-164,2024-01-18 09:34:35,0.0
2772,-328,18968,-161,175,-184,2024-01-18 09:34:35,0.0
2580,-244,18904,-163,202,-188,2024-01-18 09:34:35,0.0
2688,-300,18988,-191,216,-194,2024-01-18 09:34:35,0.0
2700,-324,18892,-154,187,-179,2024-01-18 09:34:35,0.0
2744,-304,19020,-176,178,-188,2024-01-18 09:34:35,0.0
2708,-200,18944,-185,178,-181,2024-01-18 09:34:35,0.0
2792,-288,19016,-181,167,-166,2024-01-18 09:34:35,0.0
2720,-288,18868,-172,203,-191,2024-01-18 09:34:35,0.0
2844,-320,18912,-173,208,-184,2024-01-18 09:34:35,0.0
2708,-248,18984,-163,199,-203,2024-01-18 09:34:35,0.0
2708,-368,18952,-179,180,-167,2024-01-18 09:34:35,0.0
2620,-232,19036,-164,181,-175,2024-01-18 09:34:35,0.0
2804,-312,19120,-177,188,-178,2024-01-18 09:34:36,0.0
2688,-360,18928,-176,169,-170,2024-01-18 09:34:36,0.0
2692,-196,19052,-174,212,-160,2024-01-18 09:34:36,0.0
2736,-248,18956,-158,188,-180,2024-01-18 09:34:36,0.0
2688,-316,18992,-169,193,-195,2024-01-18 09:34:36,0.0
2720,-284,18884,-167,194,-181,2024-01-18 09:34:36,0.0
2688,-320,18956,-164,181,-186,2024-01-18 09:34:36,0.0
2764,-300,19076,-147,188,-205,2024-01-18 09:34:36,0.0
2776,-344,19020,-154,182,-200,2024-01-18 09:34:36,0.0
2736,-304,19000,-164,201,-171,2024-01-18 09:34:36,0.0
2756,-312,19032,-158,205,-170,2024-01-18 09:34:36,0.0
2656,-212,18964,-181,198,-187,2024-01-18 09:34:36,0.0
2772,-320,18956,-182,178,-181,2024-01-18 09:34:36,0.0
2628,-192,18900,-165,198,-176,2024-01-18 09:34:36,0.0
2840,-220,19112,-171,196,-181,2024-01-18 09:34:36,0.0
2732,-356,18956,-186,183,-168,2024-01-18 09:34:36,0.0
2840,-216,18924,-171,182,-187,2024-01-18 09:34:36,0.0
2768,-344,18968,-181,194,-185,2024-01-18 09:34:36,0.0
2636,-324,18972,-189,192,-181,2024-01-18 09:34:36,0.0
2768,-312,18892,-171,188,-155,2024-01-18 09:34:36,0.0
2760,-328,18956,-157,194,-157,2024-01-18 09:34:36,0.0
2660,-280,18924,-193,194,-181,2024-01-18 09:34:36,0.0
2696,-336,19048,-154,184,-174,2024-01-18 09:34:36,0.0
2752,-284,18976,-151,180,-178,2024-01-18 09:34:36,0.0
2680,-252,18864,-194,168,-187,2024-01-18 09:34:36,0.0
2756,-320,18944,-172,194,-179,2024-01-18 09:34:36,0.0
2748,-408,19108,-140,195,-193,2024-01-18 09:34:36,0.0
2760,-304,18900,-165,186,-187,2024-01-18 09:34:36,0.0
2680,-260,18900,-198,180,-170,2024-01-18 09:34:36,0.0
2812,-308,18924,-172,174,-172,2024-01-18 09:34:36,0.0
2772,-308,18848,-189,197,-170,2024-01-18 09:34:36,0.0
2732,-260,19092,-187,180,-182,2024-01-18 09:34:36,0.0
2636,-236,19112,-156,185,-168,2024-01-18 09:34:36,0.0
2704,-304,19000,-173,192,-157,2024-01-18 09:34:36,0.0
2752,-392,18868,-181,190,-191,2024-01-18 09:34:36,0.0
2720,-240,18976,-163,196,-177,2024-01-18 09:34:36,0.0
2664,-272,18892,-185,183,-175,2024-01-18 09:34:36,0.0
2748,-232,19044,-166,196,-164,2024-01-18 09:34:36,0.0
2708,-368,18924,-176,185,-196,2024-01-18 09:34:36,
2800,-264,18980,-156,180,-169,2024-01-18 09:34:36,0.0
2724,-312,18976,-165,202,-207,2024-01-18 09:34:36,0.0
2688,-316,18888,-160,200,-188,2024-01-18 09:34:36,0.0
2664,-232,19000,-168,200,-173,2024-01-18 09:34:36,0.0
2728,-328,18896,-179,213,-199,2024-01-18 09:34:36,0.0
2740,-308,19028,-172,201,-170,2024-01-18 09:34:36,0.0
2756,-272,18944,-174,206,-178,2024-01-18 09:34:36,0.0
2792,-380,18884,-167,189,-187,2024-01-18 09:34:36,0.0
2700,-312,18976,-183,190,-185,2024-01-18 09:34:36,0.0
2728,-356,19148,-168,182,-194,2024-01-18 09:34:36,0.0
2800,-276,18956,-151,198,-201,2024-01-18 09:34:36,0.0
2792,-280,18856,-190,172,-175,2024-01-18 09:34:36,0.0
2740,-348,19088,-184,221,-167,2024-01-18 09:34:36,0.0
2732,-276,18816,-186,187,-161,2024-01-18 09:34:36,0.0
2728,-260,18980,-169,213,-180,2024-01-18 09:34:36,0.0
2716,-292,19020,-164,165,-176,2024-01-18 09:34:36,0.0
2748,-268,19012,-166,195,-177,2024-01-18 09:34:36,0.0
2712,-288,18964,-152,207,-157,2024-01-18 09:34:36,0.0
2608,-280,19128,-166,190,-205,2024-01-18 09:34:36,0.0
2820,-396,18964,-172,190,-182,2024-01-18 09:34:36,0.0
2732,-324,19008,-171,204,-188,2024-01-18 09:34:37,0.0
2760,-256,18956,-169,189,-181,2024-01-18 09:34:37,0.0
2784,-328,18892,-153,213,-174,2024-01-18 09:34:37,0.0
2696,-316,19012,-162,186,-170,2024-01-18 09:34:37,0.0
2712,-276,18868,-154,202,-176,2024-01-18 09:34:37,0.0
2744,-356,19040,-162,201,-191,2024-01-18 09:34:37,0.0
2696,-292,19092,-191,184,-184,2024-01-18 09:34:37,0.0
2864,-264,18920,-172,202,-163,2024-01-18 09:34:37,0.0
2664,-280,18984,-172,179,-171,2024-01-18 09:34:37,0.0
2816,-340,18920,-164,180,-171,2024-01-18 09:34:37,0.0
2620,-324,19040,-181,177,-198,2024-01-18 09:34:37,0.0
2652,-344,19032,-146,183,-188,2024-01-18 09:34:37,0.0
2784,-348,18924,-170,211,-178,2024-01-18 09:34:37,0.0
2800,-332,18948,-144,201,-195,2024-01-18 09:34:37,0.0
2652,-296,19028,-163,172,-181,2024-01-18 09:34:37,0.0
2764,-348,19028,-152,204,-170,2024-01-18 09:34:37,0.0
2784,-200,18892,-166,196,-186,2024-01-18 09:34:37,0.0
2792,-360,18940,-167,197,-188,2024-01-18 09:34:37,0.0
2696,-300,18900,-188,182,-187,2024-01-18 09:34:37,0.0
2692,-308,18912,-153,198,-195,2024-01-18 09:34:37,0.0
2788,-308,18916,-191,164,-200,2024-01-18 09:34:37,0.0
2688,-300,18980,-168,181,-173,2024-01-18 09:34:37,0.0
2828,-324,19124,-168,189,-189,2024-01-18 09:34:37,0.0
2716,-252,19044,-178,205,-198,2024-01-18 09:34:37,0.0
2700,-308,18908,-167,185,-186,2024-01-18 09:34:37,0.0
2744,-268,19048,-166,182,-219,2024-01-18 09:34:37,0.0
2732,-276,18932,-212,192,-191,2024-01-18 09:34:37,0.0
2768,-216,18964,-168,189,-179,2024-01-18 09:34:37,0.0
2812,-212,19128,-183,196,-209,2024-01-18 09:34:37,0.0
2780,-304,18864,-162,189,-173,2024-01-18 09:34:37,0.0
2716,-324,18936,-189,191,-169,2024-01-18 09:34:37,0.0
2796,-288,18952,-177,179,-189,2024-01-18 09:34:37,0.0
2800,-356,18808,-163,193,-186,2024-01-18 09:34:37,0.0
2728,-272,19012,-205,180,-191,2024-01-18 09:34:37,0.0
2684,-204,19056,-176,169,-188,2024-01-18 09:34:37,0.0
2752,-288,18924,-163,187,-182,2024-01-18 09:34:37,0.0
2704,-316,19056,-153,203,-197,2024-01-18 09:34:37,0.0
2684,-264,18964,-174,204,-187,2024-01-18 09:34:37,0.0
2644,-212,19000,-170,198,-178,2024-01-18 09:34:37,0.0
2780,-264,18976,-159,200,-175,2024-01-18 09:34:37,0.0
2700,-388,19008,-177,187,-186,2024-01-18 09:34:37,0.0
2712,-280,18968,-186,201,-185,2024-01-18 09:34:37,0.0
2836,-200,18932,-170,192,-173,2024-01-18 09:34:37,0.0
2704,-280,19088,-173,192,-188,2024-01-18 09:34:37,0.0
2684,-348,19096,-196,204,-160,2024-01-18 09:34:37,0.0
2680,-272,18956,-172,180,-183,2024-01-18 09:34:37,0.0
2620,-148,19028,-155,189,-166,2024-01-18 09:34:37,0.0
2840,-360,18988,-160,186,-191,2024-01-18 09:34:37,0.0
2644,-268,18988,-167,185,-178,2024-01-18 09:34:37,0.0
2760,-240,18904,-162,151,-158,2024-01-18 09:34:37,0.0
2792,-292,19060,-148,205,-183,2024-01-18 09:34:37,0.0
2772,-248,18880,-165,191,-178,2024-01-18 09:34:37,0.0
2816,-288,19152,-176,199,-192,2024-01-18 09:34:37,0.0
2764,-316,19068,-163,194,-172,2024-01-18 09:34:37,0.0
2680,-292,18820,-159,179,-171,2024-01-18 09:34:37,0.0
2828,-344,18952,-171,192,-176,2024-01-18 09:34:37,0.0
2688,-268,18948,-181,212,-180,2024-01-18 09:34:37,0.0
2736,-352,18920,-174,188,-182,2024-01-18 09:34:37,0.0
2660,-312,18944,-176,195,-195,2024-01-18 09:34:37,0.0
2812,-276,19008,-178,182,-176,2024-01-18 09:34:38,0.0
2852,-276,19020,-151,188,-177,2024-01-18 09:34:38,0.0
2716,-248,18940,-179,178,-170,2024-01-18 09:34:38,0.0
2756,-284,18996,-176,193,-162,2024-01-18 09:34:38,0.0
2736,-232,19076,-170,210,-186,2024-01-18 09:34:38,0.0
2748,-308,19036,-160,186,-174,2024-01-18 09:34:38,0.0
2692,-296,18932,-165,176,-195,2024-01-18 09:34:38,0.0
2852,-284,19012,-143,182,-180,2024-01-18 09:34:38,0.0
2748,-308,18992,-176,205,-205,2024-01-18 09:34:38,0.0
2768,-288,18904,-169,190,-176,2024-01-18 09:34:38,0.0
2848,-304,18928,-192,179,-196,2024-01-18 09:34:38,0.0
2784,-316,19008,-169,179,-172,2024-01-18 09:34:38,0.0
2800,-312,18916,-173,177,-195,2024-01-18 09:34:38,0.0
2740,-264,18988,-165,204,-181,2024-01-18 09:34:38,0.0
2808,-344,18896,-155,189,-171,2024-01-18 09:34:38,0.0
2820,-360,19116,-160,199,-180,2024-01-18 09:34:38,0.0
2660,-252,18968,-174,184,-191,2024-01-18 09:34:38,0.0
2680,-308,18916,-172,147,-190,2024-01-18 09:34:38,0.0
2812,-280,18944,-171,187,-200,2024-01-18 09:34:38,0.0
2740,-228,19032,-161,202,-189,2024-01-18 09:34:38,0.0
2736,-280,19096,-185,202,-169,2024-01-18 09:34:38,
2740,-300,18964,-169,199,-199,2024-01-18 09:34:38,0.0
2816,-212,18888,-172,207,-182,2024-01-18 09:34:38,0.0
2668,-364,19036,-169,188,-189,2024-01-18 09:34:38,0.0
2824,-348,18984,-170,190,-179,2024-01-18 09:34:38,0.0
2696,-280,18876,-165,189,-193,2024-01-18 09:34:38,0.0
2736,-268,18972,-156,195,-184,2024-01-18 09:34:38,0.0
2756,-328,18944,-181,186,-175,2024-01-18 09:34:38,0.0
2692,-384,18936,-174,177,-172,2024-01-18 09:34:38,0.0
2700,-316,19092,-177,200,-178,2024-01-18 09:34:38,0.0
2764,-276,19036,-169,159,-177,2024-01-18 09:34:38,0.0
2732,-340,18932,-188,166,-167,2024-01-18 09:34:38,0.0
2772,-252,19076,-169,175,-190,2024-01-18 09:34:38,0.0
2788,-356,18900,-159,199,-193,2024-01-18 09:34:38,0.0
2700,-240,19032,-145,199,-182,2024-01-18 09:34:38,0.0
2672,-220,18988,-157,193,-176,2024-01-18 09:34:38,0.0
2712,-284,19028,-157,189,-189,2024-01-18 09:34:38,0.0
2732,-332,18872,-169,190,-180,2024-01-18 09:34:38,0.0
2732,-288,18948,-197,196,-206,2024-01-18 09:34:38,0.0
2760,-236,18908,-194,194,-179,2024-01-18 09:34:38,0.0
2784,-320,18980,-183,207,-166,2024-01-18 09:34:38,0.0
2808,-228,19000,-179,196,-178,2024-01-18 09:34:38,0.0
2768,-208,18968,-171,187,-167,2024-01-18 09:34:38,0.0
2804,-284,19056,-170,197,-168,2024-01-18 09:34:38,0.0
2724,-344,19080,-150,202,-190,2024-01-18 09:34:38,0.0
2800,-308,19000,-172,193,-194,2024-01-18 09:34:38,0.0
2784,-344,19036,-195,209,-196,2024-01-18 09:34:38,0.0
2820,-288,18896,-166,199,-175,2024-01-18 09:34:38,0.0
2828,-336,18932,-181,194,-198,2024-01-18 09:34:38,0.0
2640,-360,19024,-160,164,-184,2024-01-18 09:34:38,0.0
2696,-248,19008,-194,192,-202,2024-01-18 09:34:38,0.0
2736,-388,18916,-165,189,-186,2024-01-18 09:34:38,0.0
2740,-304,18868,-175,177,-172,2024-01-18 09:34:38,0.0
2744,-276,19040,-173,203,-190,2024-01-18 09:34:38,0.0
2732,-376,18980,-161,189,-201,2024-01-18 09:34:38,0.0
2700,-256,19016,-153,184,-178,2024-01-18 09:34:38,0.0
2696,-340,19048,-171,190,-180,2024-01-18 09:34:38,0.0
2784,-276,19036,-173,201,-165,2024-01-18 09:34:38,0.0
2700,-324,18972,-145,185,-213,2024-01-18 09:34:38,0.0
2844,-268,19032,-177,192,-181,2024-01-18 09:34:39,0.0
2696,-224,18988,-163,201,-179,2024-01-18 09:34:39,0.0
2752,-288,19028,-177,187,-159,2024-01-18 09:34:39,0.0
2648,-240,19020,-149,183,-196,2024-01-18 09:34:39,0.0
2772,-344,19116,-172,182,-159,2024-01-18 09:34:39,0.0
2732,-228,18904,-163,199,-203,2024-01-18 09:34:39,0.0
2684,-304,18956,-148,161,-170,2024-01-18 09:34:39,0.0
2736,-348,18964,-186,204,-186,2024-01-18 09:34:39,0.0
2760,-316,18892,-181,196,-188,2024-01-18 09:34:39,0.0
2812,-220,19104,-155,198,-204,2024-01-18 09:34:39,0.0
2688,-336,19024,-166,215,-192,2024-01-18 09:34:39,0.0
2776,-316,18944,-172,203,-178,2024-01-18 09:34:39,0.0
2740,-236,18840,-163,185,-173,2024-01-18 09:34:39,0.0
2680,-240,19144,-174,165,-174,2024-01-18 09:34:39,0.0
2820,-264,19060,-172,211,-180,2024-01-18 09:34:39,0.0
2768,-208,18824,-183,202,-189,2024-01-18 09:34:39,0.0
2720,-268,18920,-145,194,-146,2024-01-18 09:34:39,0.0
2720,-320,18860,-177,180,-183,2024-01-18 09:34:39,0.0
2744,-316,18952,-160,206,-188,2024-01-18 09:34:39,0.0
2812,-328,18960,-187,179,-179,2024-01-18 09:34:39,0.0
2764,-416,19084,-172,180,-195,2024-01-18 09:34:39,0.0
2716,-284,19092,-190,203,-167,2024-01-18 09:34:39,0.0
2784,-280,18940,-189,214,-181,2024-01-18 09:34:39,0.0
2788,-224,18968,-206,285,-177,2024-01-18 09:34:39,0.0
2704,-252,18912,-170,254,-164,2024-01-18 09:34:39,0.0
2648,-280,18916,-158,161,-193,2024-01-18 09:34:39,0.0
2772,-304,18848,-171,195,-212,2024-01-18 09:34:39,0.0
2612,-356,18792,-159,224,-161,2024-01-18 09:34:39,0.0
2852,-228,18892,-180,292,-185,2024-01-18 09:34:39,0.0
7516,-1232,17236,-366,-70,824,2024-01-18 09:34:39,0.0
2212,-480,19276,-94,158,-523,2024-01-18 09:34:39,0.0
-1064,1056,18752,-158,137,-323,2024-01-18 09:34:39,0.0
2656,-300,18844,-185,207,-35,2024-01-18 09:34:39,0.0
2960,-272,18948,-135,197,-118,2024-01-18 09:34:39,0.0
2704,-212,19120,-173,153,-168,2024-01-18 09:34:39,0.0
2808,-340,19076,-133,145,-126,2024-01-18 09:34:39,0.0
2992,0,18984,-147,97,-172,2024-01-18 09:34:39,0.0
3096,-1008,18748,-244,180,-303,2024-01-18 09:34:39,0.0
5420,-176,18936,-274,140,-2315,2024-01-18 09:34:39,0.0
6844,-436,19560,-72,-218,-5671,2024-01-18 09:34:39,0.0
7556,-1408,19236,-47,-234,-8357,2024-01-18 09:34:39,0.0
6556,-556,18296,-247,496,-9830,2024-01-18 09:34:39,0.0
3220,308,19068,-319,577,-10198,2024-01-18 09:34:39,0.0
-244,-1668,19480,-156,-463,-9018,2024-01-18 09:34:39,0.0
-2368,-220,19448,-378,-2345,-5205,2024-01-18 09:34:39,0.0
-592,-16,20008,-953,-3198,-2087,2024-01-18 09:34:39,0.0
2596,-900,18680,-967,-2143,-1740,2024-01-18 09:34:39,0.0
4692,-2000,18696,-878,-1466,-2702,2024-01-18 09:34:39,0.0
4936,-1028,19144,-764,-912,-4085,2024-01-18 09:34:39,0.0
6980,-56,19476,-831,-1188,-5267,2024-01-18 09:34:39,0.0
6028,4,21432,-834,-4744,-6488,2024-01-18 09:34:39,0.0
2336,-1224,21948,979,-6228,-5698,2024-01-18 09:34:39,0.0
2456,116,21312,2560,-5921,-3960,2024-01-18 09:34:39,0.0
4136,-968,24852,3895,-9645,-3693,2024-01-18 09:34:39,0.0
2876,-1880,23548,6280,-11629,-3961,2024-01-18 09:34:39,0.0
3892,-816,21768,7905,-10881,-3511,2024-01-18 09:34:39,0.0
5500,1060,23388,9969,-9885,-3608,2024-01-18 09:34:39,0.0
9928,1612,24648,12133,-9389,-5183,2024-01-18 09:34:39,0.0
7780,-792,24148,15013,-10584,-6216,2024-01-18 09:34:39,0.0
9232,-1428,21908,15976,-13085,-6696,2024-01-18 09:34:40,0.0
8660,-1268,21748,16745,-12556,-8563,2024-01-18 09:34:40,0.0
3512,240,19836,17648,-8418,-9035,2024-01-18 09:34:40,
2652,2404,17664,17476,-4539,-6330,2024-01-18 09:34:40,0.0
10260,4164,20004,15758,-5872,-5529,2024-01-18 09:34:40,0.0
9996,1620,22416,17646,-7311,-7471,2024-01-18 09:34:40,0.0
8200,688,19376,20585,-4289,-9020,2024-01-18 09:34:40,0.0
9808,4768,17604,21721,-564,-12032,2024-01-18 09:34:40,0.0
4412,3028,17768,22736,-244,-12243,2024-01-18 09:34:40,0.0
4440,5344,14372,23213,-551,-9275,2024-01-18 09:34:40,0.0
6904,10140,11144,20602,-1220,-6828,2024-01-18 09:34:40,0.0
7280,10696,14064,17789,-587,-7371,2024-01-18 09:34:40,0.0
4084,7208,16780,18557,1504,-8329,2024-01-18 09:34:40,0.0
7332,7604,17512,20075,2374,-7922,2024-01-18 09:34:40,0.0
8396,9144,17556,22964,1823,-10130,2024-01-18 09:34:40,0.0
4224,9772,14728,25650,-993,-9546,2024-01-18 09:34:40,0.0
5232,10896,12176,26207,-704,-8383,2024-01-18 09:34:40,0.0
5592,11664,9728,24946,2508,-7371,2024-01-18 09:34:40,0.0
5568,9808,8240,23393,2374,-7950,2024-01-18 09:34:40,0.0
4116,9740,3916,22516,2863,-8314,2024-01-18 09:34:40,0.0
1080,10788,-456,20277,2414,-7050,2024-01-18 09:34:40,0.0
1304,13248,-3040,15309,1435,-3848,2024-01-18 09:34:40,0.0
2984,15048,-1372,9867,1119,-1674,2024-01-18 09:34:40,0.0
6592,15912,5348,5681,2277,-1666,2024-01-18 09:34:40,0.0
5524,12360,10316,5659,2751,-3112,2024-01-18 09:34:40,0.0
2172,13344,4784,7607,1789,-1908,2024-01-18 09:34:40,0.0
3116,15424,1224,5642,-456,-159,2024-01-18 09:34:40,0.0
6092,15180,4304,3381,1190,-1327,2024-01-18 09:34:40,0.0
7104,15392,9488,3750,1523,-2921,2024-01-18 09:34:40,0.0
5352,13744,11168,7518,1898,-4862,2024-01-18 09:34:40,0.0
1840,14800,6544,10835,2299,-5146,2024-01-18 09:34:40,0.0
1812,15928,5024,9101,1782,-4052,2024-01-18 09:34:40,0.0
1244,14804,6644,9263,2141,-3507,2024-01-18 09:34:40,0.0
1816,15604,7276,10738,-308,-1863,2024-01-18 09:34:40,0.0
1668,14660,5768,12521,-434,-1183,2024-01-18 09:34:40,0.0
2252,15700,2580,12003,-1177,-317,2024-01-18 09:34:40,0.0
4528,16036,868,10454,-1803,-1187,2024-01-18 09:34:40,0.0
6844,15092,2140,8828,635,-3398,2024-01-18 09:34:40,0.0
4704,14272,2180,9696,2932,-4845,2024-01-18 09:34:40,0.0
680,14148,-500,9683,2421,-4094,2024-01-18 09:34:40,0.0
-1796,14568,-4160,8035,1120,-1133,2024-01-18 09:34:40,0.0
1204,16868,-6268,3982,21,1022,2024-01-18 09:34:40,0.0
3676,16024,-1348,1224,682,741,2024-01-18 09:34:40,0.0
5760,16872,2828,983,321,-364,2024-01-18 09:34:40,0.0
5588,16432,4828,3450,1540,-2713,2024-01-18 09:34:40,0.0
1308,16032,1048,5952,1204,-3151,2024-01-18 09:34:40,0.0
-556,16624,-1436,5313,-355,-1576,2024-01-18 09:34:40,0.0
172,15704,-1564,4043,-949,109,2024-01-18 09:34:40,0.0
1504,16200,-1152,2827,-1452,584,2024-01-18 09:34:40,0.0
2080,15920,-912,2433,-708,630,2024-01-18 09:34:40,0.0
3384,15864,-96,2142,310,-130,2024-01-18 09:34:40,0.0
2828,16424,976,2038,1126,-750,2024-01-18 09:34:40,0.0
3000,15980,3144,2629,646,-890,2024-01-18 09:34:40,0.0
1832,15164,2204,5090,567,-1044,2024-01-18 09:34:40,0.0
360,14936,-1696,5780,-917,96,2024-01-18 09:34:40,0.0
1100,15748,-4432,3740,-1510,1474,2024-01-18 09:34:40,0.0
3256,15588,-2872,848,-434,1823,2024-01-18 09:34:40,0.0
4940,15588,816,164,515,642,2024-01-18 09:34:40,0.0
3996,15356,1908,1262,1563,-482,2024-01-18 09:34:40,0.0
2932,15456,836,2065,1722,-853,2024-01-18 09:34:41,0.0
1492,15232,-1376,2299,1264,-255,2024-01-18 09:34:41,0.0
464,16080,-1316,1239,32,1252,2024-01-18 09:34:41,0.0
1996,15440,-376,1018,-206,1922,2024-01-18 09:34:41,0.0
4384,16068,-296,930,-4,1621,2024-01-18 09:34:41,0.0
5024,15596,1236,1600,984,-164,2024-01-18 09:34:41,0.0
3348,15640,420,2972,2002,-1336,2024-01-18 09:34:41,0.0
1628,15388,-976,3342,1637,-1253,2024-01-18 09:34:41,0.0
1728,14660,-2344,3389,1240,-624,2024-01-18 09:34:41,0.0
2156,14680,-3448,2210,701,46,2024-01-18 09:34:41,0.0
2768,14860,-3652,1018,1048,532,2024-01-18 09:34:41,0.0
4168,14968,-1636,-54,-40,650,2024-01-18 09:34:41,0.0
4800,14192,576,754,314,-295,2024-01-18 09:34:41,0.0
3700,14116,300,2359,410,-1316,2024-01-18 09:34:41,0.0
2480,14768,-1956,2862,366,-1232,2024-01-18 09:34:41,0.0
1528,14744,-3156,2304,214,-647,2024-01-18 09:34:41,0.0
2204,15380,-1968,752,-902,543,2024-01-18 09:34:41,0.0
3552,14888,936,1392,-964,574,2024-01-18 09:34:41,0.0
3548,16052,-632,3724,-788,-282,2024-01-18 09:34:41,0.0
1660,16628,-3788,5297,68,-781,2024-01-18 09:34:41,0.0
168,18044,-7068,5452,1550,-525,2024-01-18 09:34:41,0.0
124,18084,-8284,4023,579,1005,2024-01-18 09:34:41,0.0
4220,17560,-7524,1482,-709,2024,2024-01-18 09:34:41,0.0
6628,16428,-5612,-229,-820,684,2024-01-18 09:34:41,0.0
6292,16620,-4268,-1668,-494,-897,2024-01-18 09:34:41,0.0
5192,16204,-484,-2548,-565,-2096,2024-01-18 09:34:41,0.0
3644,15564,2468,-1095,-910,-2730,2024-01-18 09:34:41,0.0
1440,14668,1476,1386,-507,-2971,2024-01-18 09:34:41,0.0
728,14664,-1296,2218,-1121,-2262,2024-01-18 09:34:41,0.0
428,14460,-3112,1580,-593,-1629,2024-01-18 09:34:41,0.0
1332,14940,-2912,34,-210,-985,2024-01-18 09:34:41,0.0
2684,15160,-1544,-409,559,-1288,2024-01-18 09:34:41,0.0
1712,15428,-1120,386,436,-1395,2024-01-18 09:34:41,0.0
896,15204,-2196,1074,-405,-444,2024-01-18 09:34:41,0.0
1964,15372,-2936,1002,-1084,109,2024-01-18 09:34:41,0.0
2088,14812,-3444,796,-588,51,2024-01-18 09:34:41,0.0
2540,14892,-3772,36,-658,24,2024-01-18 09:34:41,0.0
2888,14696,-3856,-750,-523,-103,2024-01-18 09:34:41,0.0
3480,15368,-3252,-1561,-192,-736,2024-01-18 09:34:41,0.0
3472,15672,-2424,-1810,589,-1642,2024-01-18 09:34:41,0.0
3200,16272,-1816,-1539,1651,-2749,2024-01-18 09:34:41,0.0
2704,16500,-1508,-1469,2024,-3253,2024-01-18 09:34:41,0.0
876,16416,-20,-1272,1384,-2768,2024-01-18 09:34:41,0.0
416,15008,-776,384,865,-1246,2024-01-18 09:34:41,
884,14848,-1616,1370,-695,-558,2024-01-18 09:34:41,0.0
1708,14676,-4312,1394,-356,-339,2024-01-18 09:34:41,0.0
2096,15196,-5440,159,129,-569,2024-01-18 09:34:41,0.0
2040,15428,-5280,-1323,1652,-1160,2024-01-18 09:34:41,0.0
1604,15620,-3952,-2418,2741,-1616,2024-01-18 09:34:41,0.0
532,15544,-2300,-2355,2280,-1292,2024-01-18 09:34:41,0.0
668,15516,-1412,-1932,1135,-132,2024-01-18 09:34:41,0.0
1564,15032,-196,-894,-616,923,2024-01-18 09:34:41,0.0
3736,14780,-1004,588,-2275,1286,2024-01-18 09:34:41,0.0
5240,15164,-2412,980,-1917,300,2024-01-18 09:34:41,0.0
5260,15004,-3016,896,-570,-2155,2024-01-18 09:34:41,0.0
3400,14720,-3804,1049,385,-3950,2024-01-18 09:34:41,0.0
2164,15216,-4840,480,578,-4744,2024-01-18 09:34:41,0.0
840,15788,-5476,-851,378,-4763,2024-01-18 09:34:41,0.0
-2640,16260,-7156,-4107,-1203,-1130,2024-01-18 09:34:41,0.0
412,14888,-6328,-8492,593,1625,2024-01-18 09:34:42,0.0
3148,15416,-5876,-10698,-2199,1198,2024-01-18 09:34:42,0.0
1544,13924,-4896,-12982,-3350,694,2024-01-18 09:34:42,0.0
-76,15148,-4928,-15097,-7985,1786,2024-01-18 09:34:42,0.0
3104,13784,-4528,-15312,-5943,2085,2024-01-18 09:34:42,0.0
3432,14016,-2136,-15715,-4507,907,2024-01-18 09:34:42,0.0
548,13964,-3168,-17207,-2316,1523,2024-01-18 09:34:42,0.0
352,14104,-3052,-20771,-2988,3257,2024-01-18 09:34:42,0.0
3820,14800,3144,-23289,-5518,2820,2024-01-18 09:34:42,0.0
2856,13948,9876,-20669,-7381,1417,2024-01-18 09:34:42,0.0
2344,13540,9952,-14550,-7236,1458,2024-01-18 09:34:42,0.0
2048,13516,4176,-10678,-9028,1492,2024-01-18 09:34:42,0.0
2640,14928,-1368,-11834,-5612,1667,2024-01-18 09:34:42,0.0
2392,14824,1956,-14907,-5800,1728,2024-01-18 09:34:42,0.0
4940,14072,7252,-16348,-5865,1365,2024-01-18 09:34:42,0.0
4676,13316,9528,-14293,-4978,-628,2024-01-18 09:34:42,0.0
2532,13248,6220,-12568,-3190,-978,2024-01-18 09:34:42,0.0
1916,15116,4940,-14137,-970,-1339,2024-01-18 09:34:42,0.0
-696,13500,7020,-15371,-711,-874,2024-01-18 09:34:42,0.0
-2380,13756,8816,-14452,-2391,2021,2024-01-18 09:34:42,0.0
796,12992,9120,-13463,-3526,4208,2024-01-18 09:34:42,0.0
3272,12828,8184,-13618,-5622,5156,2024-01-18 09:34:42,0.0
4240,12664,6316,-15070,-7296,5474,2024-01-18 09:34:42,0.0
7008,13064,4844,-18374,-7936,5183,2024-01-18 09:34:42,0.0
9020,12588,11208,-18847,-1187,2200,2024-01-18 09:34:42,0.0
6648,12140,14844,-17833,5256,-1606,2024-01-18 09:34:42,0.0
4380,11144,17088,-16672,7621,-2423,2024-01-18 09:34:42,0.0
3028,12100,17264,-14629,2364,-1927,2024-01-18 09:34:42,0.0
1444,11156,15564,-12767,-2095,-547,2024-01-18 09:34:42,0.0
1208,10344,11108,-11984,-4111,1180,2024-01-18 09:34:42,0.0
4928,10920,8260,-14406,-2357,2617,2024-01-18 09:34:42,0.0
7896,12444,13972,-17622,3386,30,2024-01-18 09:34:42,0.0
6120,11656,20916,-17347,5658,-3626,2024-01-18 09:34:42,0.0
1788,9484,23064,-13988,2043,-4139,2024-01-18 09:34:42,0.0
392,9120,19740,-10372,-3470,-1819,2024-01-18 09:34:42,0.0
1296,9508,15756,-8161,-6512,574,2024-01-18 09:34:42,0.0
3672,8816,14044,-7489,-7459,1439,2024-01-18 09:34:42,0.0
2488,7244,11840,-7539,-9308,2518,2024-01-18 09:34:42,0.0
4164,7604,9356,-9366,-10088,3435,2024-01-18 09:34:42,0.0
7812,8940,10800,-13806,-5372,1856,2024-01-18 09:34:42,0.0
7684,8228,14228,-16938,-4336,-629,2024-01-18 09:34:42,0.0
6000,6592,16140,-17971,-4897,-1857,2024-01-18 09:34:42,0.0
3984,5196,17196,-17959,-5904,-599,2024-01-18 09:34:42,0.0
5072,6056,19424,-16921,-6774,256,2024-01-18 09:34:42,0.0
6440,5492,20624,-15477,-6126,-5,2024-01-18 09:34:42,0.0
7932,3396,19764,-13228,-7888,-1033,2024-01-18 09:34:42,0.0
8632,3004,15692,-12352,-8425,-1115,2024-01-18 09:34:42,0.0
11180,4032,13456,-14052,-10433,-1807,2024-01-18 09:34:42,0.0
12716,3340,15812,-16605,-8521,-5907,2024-01-18 09:34:42,0.0
5512,1776,18192,-16643,-6104,-7980,2024-01-18 09:34:42,0.0
248,1148,17044,-15563,-7582,-4183,2024-01-18 09:34:42,0.0
7888,1456,16604,-16226,-7333,-1830,2024-01-18 09:34:42,0.0
15572,812,17824,-17062,-10976,-4072,2024-01-18 09:34:42,0.0
18360,1236,19088,-17091,-10185,-9161,2024-01-18 09:34:42,0.0
10792,-1168,22572,-16067,-10823,-12437,2024-01-18 09:34:42,0.0
8100,-596,22848,-13238,-11721,-12170,2024-01-18 09:34:42,0.0
9588,672,23904,-11273,-9687,-11471,2024-01-18 09:34:42,0.0
11832,-176,26564,-9913,-11768,-12185,2024-01-18 09:34:42,0.0
10704,156,25592,-7052,-17141,-12747,2024-01-18 09:34:42,0.0
7728,440,23872,-3997,-23149,-10097,2024-01-18 09:34:43,0.0
5572,3344,23588,-2016,-21950,-6514,2024-01-18 09:34:43,0.0
9312,56,23852,-2313,-23649,-5387,2024-01-18 09:34:43,0.0
14288,-1028,24252,-964,-22185,-7404,2024-01-18 09:34:43,0.0
16444,-908,24544,3807,-15990,-10395,2024-01-18 09:34:43,0.0
15404,-716,22256,7799,-14010,-12864,2024-01-18 09:34:43,0.0
14972,772,19856,9584,-14534,-13998,2024-01-18 09:34:43,0.0
15580,1000,17380,10698,-13124,-15490,2024-01-18 09:34:43,0.0
11532,1684,14776,11418,-11267,-15866,2024-01-18 09:34:43,0.0
8256,3372,14428,11284,-10969,-13543,2024-01-18 09:34:43,0.0
9708,5264,17768,11457,-8668,-10282,2024-01-18 09:34:43,0.0
13144,1056,20272,13393,-10773,-9866,2024-01-18 09:34:43,0.0
13164,1868,14916,18019,-14736,-9881,2024-01-18 09:34:43,0.0
16244,4384,5540,18239,-13012,-10277,2024-01-18 09:34:43,0.0
16780,7496,5024,14206,-9754,-12374,2024-01-18 09:34:43,0.0
12948,7340,9796,10595,-7358,-12815,2024-01-18 09:34:43,0.0
10552,6208,12832,10892,-10964,-11533,2024-01-18 09:34:43,0.0
11404,5368,12496,13120,-11674,-10002,2024-01-18 09:34:43,0.0
14188,6380,9460,15330,-11886,-9724,2024-01-18 09:34:43,0.0
15648,8168,6256,14814,-9996,-10623,2024-01-18 09:34:43,0.0
14936,11180,7372,13539,-8299,-11832,2024-01-18 09:34:43,0.0
10588,6020,10024,13259,-8829,-11436,2024-01-18 09:34:43,0.0
8232,9524,8132,15134,-12015,-8980,2024-01-18 09:34:43,0.0
10724,8928,6308,15720,-13589,-7756,2024-01-18 09:34:43,0.0
14660,10052,5612,16594,-9958,-10091,2024-01-18 09:34:43,0.0
10560,9220,6804,17243,-9588,-10707,2024-01-18 09:34:43,
9696,8356,5132,18863,-9619,-8847,2024-01-18 09:34:43,0.0
9864,9472,1984,18742,-12043,-6863,2024-01-18 09:34:43,0.0
11044,9852,-952,18032,-13873,-5603,2024-01-18 09:34:43,0.0
12532,11648,-2988,16414,-13826,-5290,2024-01-18 09:34:43,0.0
13736,12108,-2012,14100,-9075,-5777,2024-01-18 09:34:43,0.0
13964,10028,-492,14143,-7909,-7599,2024-01-18 09:34:43,0.0
10548,9472,-2652,15304,-7103,-7263,2024-01-18 09:34:43,0.0
9256,11240,-5648,13932,-11222,-4761,2024-01-18 09:34:43,0.0
9944,11888,-6344,11149,-15477,-2890,2024-01-18 09:34:43,0.0
10708,12308,-4848,9554,-14249,-2384,2024-01-18 09:34:43,0.0
11832,12120,-2864,9981,-8657,-3205,2024-01-18 09:34:43,0.0
12840,10632,-744,11789,-3452,-6087,2024-01-18 09:34:43,0.0
10968,10364,-2360,14563,-1124,-7683,2024-01-18 09:34:43,0.0
9624,10164,-4904,15490,-3689,-7079,2024-01-18 09:34:43,0.0
9964,11336,-7160,14453,-8266,-5137,2024-01-18 09:34:43,0.0
10864,11244,-6712,13207,-10806,-4858,2024-01-18 09:34:43,0.0
10528,10408,-6420,13377,-8803,-5524,2024-01-18 09:34:43,0.0
9472,10640,-6604,13657,-4906,-6221,2024-01-18 09:34:43,0.0
7756,9808,-7268,13493,-3310,-6522,2024-01-18 09:34:43,0.0
6060,9476,-8768,13768,-1850,-5294,2024-01-18 09:34:43,0.0
6876,9888,-10084,13033,-2035,-3629,2024-01-18 09:34:43,0.0
8348,10200,-11328,11411,-2696,-2747,2024-01-18 09:34:43,0.0
9252,9760,-10272,9555,-3560,-2588,2024-01-18 09:34:43,0.0
10628,9996,-9428,9116,-1990,-3241,2024-01-18 09:34:43,0.0
10956,9304,-9708,9578,220,-4982,2024-01-18 09:34:43,0.0
7672,9432,-9284,9659,1174,-5280,2024-01-18 09:34:43,0.0
7520,8564,-9276,10213,1078,-4625,2024-01-18 09:34:43,0.0
8092,8620,-9996,10527,2220,-4562,2024-01-18 09:34:43,0.0
9964,8784,-10512,10412,6486,-5097,2024-01-18 09:34:43,0.0
9708,9008,-11048,9913,10788,-6102,2024-01-18 09:34:43,0.0
9964,5936,-10684,9215,12567,-7241,2024-01-18 09:34:43,0.0
9340,7812,-13120,9084,13279,-7774,2024-01-18 09:34:43,0.0
9720,8512,-12456,7425,13636,-7397,2024-01-18 09:34:43,0.0
9380,8104,-10724,6926,18495,-7519,2024-01-18 09:34:44,0.0
6660,7552,-10088,7645,23302,-7377,2024-01-18 09:34:44,0.0
5948,6248,-12728,7836,28898,-5765,2024-01-18 09:34:44,0.0
9204,6512,-16096,5255,29894,-5038,2024-01-18 09:34:44,0.0
12408,6404,-15380,670,30538,-5223,2024-01-18 09:34:44,0.0
15024,7296,-12284,-2281,29273,-6838,2024-01-18 09:34:44,0.0
13932,7080,-9284,-2561,31631,-8930,2024-01-18 09:34:44,0.0
13436,7540,-8316,-3098,32767,-9320,2024-01-18 09:34:44,0.0
13364,9192,-6628,-3371,32767,-8863,2024-01-18 09:34:44,0.0
16016,8952,-4568,-4016,25636,-8536,2024-01-18 09:34:44,0.0
15304,9024,-4212,-2362,22308,-9054,2024-01-18 09:34:44,0.0
13616,9248,-6316,-1975,21920,-8907,2024-01-18 09:34:44,0.0
16632,10068,-8932,-3749,24057,-9148,2024-01-18 09:34:44,0.0
18852,10552,-6364,-6966,22802,-10526,2024-01-18 09:34:44,0.0
18340,9740,-3404,-7652,22810,-12093,2024-01-18 09:34:44,0.0
14608,9904,-3688,-7572,23565,-12332,2024-01-18 09:34:44,0.0
14716,10656,-6204,-9834,22570,-11655,2024-01-18 09:34:44,0.0
17880,10312,-6800,-12956,22811,-12348,2024-01-18 09:34:44,0.0
18672,9312,-3760,-15613,26946,-16022,2024-01-18 09:34:44,0.0
15900,9540,180,-16016,30962,-19077,2024-01-18 09:34:44,0.0
12184,9784,3288,-14789,31200,-20132,2024-01-18 09:34:44,0.0
9724,10176,2664,-13703,32734,-19945,2024-01-18 09:34:44,0.0
5020,11784,3948,-15166,28964,-17667,2024-01-18 09:34:44,0.0
3260,12124,7888,-16159,24230,-14360,2024-01-18 09:34:44,0.0
8212,11072,12016,-13710,23672,-12071,2024-01-18 09:34:44,0.0
13616,11264,12684,-9275,24586,-14047,2024-01-18 09:34:44,0.0
13664,11528,11216,-5541,26654,-17107,2024-01-18 09:34:44,0.0
6892,12612,9072,-4642,25299,-18864,2024-01-18 09:34:44,0.0
1548,13192,10552,-4688,20793,-16990,2024-01-18 09:34:44,0.0
-1280,12080,11008,-3559,17163,-14426,2024-01-18 09:34:44,0.0
576,13340,10296,-3013,14259,-10964,2024-01-18 09:34:44,0.0
5852,13008,10460,-2220,13020,-10626,2024-01-18 09:34:44,0.0
8920,13056,9508,-1887,17120,-12431,2024-01-18 09:34:44,0.0
11860,13156,10340,-1935,19973,-17119,2024-01-18 09:34:44,0.0
11020,11844,10508,-885,16006,-21454,2024-01-18 09:34:44,0.0
6480,10296,8856,707,16322,-24673,2024-01-18 09:34:44,0.0
-1860,9704,6776,772,17269,-25247,2024-01-18 09:34:44,0.0
-8756,10720,6860,-1035,15900,-21635,2024-01-18 09:34:44,0.0
-9088,14508,9756,-2323,11150,-16095,2024-01-18 09:34:44,0.0
-3484,11256,16340,-954,800,-13115,2024-01-18 09:34:44,0.0
-1456,11072,14616,2909,93,-13132,2024-01-18 09:34:44,0.0
-3164,9704,10624,6330,3957,-14554,2024-01-18 09:34:44,0.0
-12248,11944,4928,5494,9849,-13714,2024-01-18 09:34:44,0.0
-17584,13472,7332,1553,7299,-8892,2024-01-18 09:34:44,0.0
-16524,12576,13488,-37,-4720,-1967,2024-01-18 09:34:44,0.0
-11176,11588,13144,2293,-5355,1587,2024-01-18 09:34:44,0.0
-6692,11228,10744,4788,-3297,1814,2024-01-18 09:34:44,0.0
-5108,11836,8524,5031,-1365,967,2024-01-18 09:34:44,0.0
-5068,11536,9036,3618,-4361,-148,2024-01-18 09:34:44,0.0
-8160,11648,8044,2716,-6798,542,2024-01-18 09:34:44,0.0
-9424,11588,7076,1922,-9836,2792,2024-01-18 09:34:44,0.0
-8860,11808,8500,1064,-14802,4891,2024-01-18 09:34:44,0.0
-9240,12860,9552,-354,-22642,7785,2024-01-18 09:34:44,0.0
-8256,12848,12612,-205,-26383,10247,2024-01-18 09:34:44,0.0
-7384,13292,15516,1227,-31548,12648,2024-01-18 09:34:44,0.0
-6320,12680,14484,3654,-32768,14875,2024-01-18 09:34:44,0.0
-2884,12532,9964,5335,-32768,16425,2024-01-18 09:34:44,0.0
732,11596,8736,6179,-32768,16488,2024-01-18 09:34:44,0.0
1728,12232,5840,5026,-32768,15919,2024-01-18 09:34:44,0.0
3708,12252,5920,2467,-32768,16018,2024-01-18 09:34:44,0.0
7604,12496,7404,138,-32649,15486,2024-01-18 09:34:44,0.0
10056,12216,9088,-984,-30069,12957,2024-01-18 09:34:45,0.0
10076,12644,11408,-453,-26718,10687,2024-01-18 09:34:45,0.0
8652,11912,12848,1603,-24960,8987,2024-01-18 09:34:45,0.0
8112,11636,11228,4166,-25462,8123,2024-01-18 09:34:45,0.0
7672,12092,7580,6067,-24227,7115,2024-01-18 09:34:45,0.0
7320,12340,4688,5140,-21480,7376,2024-01-18 09:34:45,
7964,12936,4572,2909,-19953,7591,2024-01-18 09:34:45,0.0
7780,12424,6148,1418,-19323,8029,2024-01-18 09:34:45,0.0
7676,12192,6956,1585,-19096,8856,2024-01-18 09:34:45,0.0
7820,12016,6164,2026,-23168,10685,2024-01-18 09:34:45,0.0
10384,11968,4888,2337,-24716,11641,2024-01-18 09:34:45,0.0
12172,11680,4736,1907,-25689,11722,2024-01-18 09:34:45,0.0
16196,11560,6024,1785,-22770,9963,2024-01-18 09:34:45,0.0
16620,11176,6184,3592,-17032,6896,2024-01-18 09:34:45,0.0
15872,11176,4216,4959,-15231,5330,2024-01-18 09:34:45,0.0
15380,11336,1252,4718,-16325,4956,2024-01-18 09:34:45,0.0
16868,11296,-440,3481,-14472,4214,2024-01-18 09:34:45,0.0
18576,12032,-8,1258,-11812,2766,2024-01-18 09:34:45,0.0
17876,11720,2752,516,-6247,175,2024-01-18 09:34:45,0.0
13544,11016,4096,2040,-1947,-750,2024-01-18 09:34:45,0.0
13588,10580,1784,3758,3754,-278,2024-01-18 09:34:45,0.0
15060,11160,-364,3445,4828,-932,2024-01-18 09:34:45,0.0
14720,10856,-1168,2116,5103,-1777,2024-01-18 09:34:45,0.0
12260,11512,-408,237,3891,-1287,2024-01-18 09:34:45,0.0
12452,11624,1468,-909,4820,-325,2024-01-18 09:34:45,0.0
14308,11800,3092,-644,9605,-505,2024-01-18 09:34:45,0.0
14884,10660,3088,592,16996,-1752,2024-01-18 09:34:45,0.0
15924,11012,1288,1298,27641,-3823,2024-01-18 09:34:45,0.0
16576,10108,-532,680,32767,-6761,2024-01-18 09:34:45,0.0
16332,12040,-1108,-786,32767,-9143,2024-01-18 09:34:45,0.0
16468,11420,296,-2650,32767,-11927,2024-01-18 09:34:45,0.0
12832,11140,1772,-4775,32767,-14430,2024-01-18 09:34:45,0.0
9076,12184,5176,-6378,32767,-14722,2024-01-18 09:34:45,0.0
7828,12096,8964,-6710,32767,-13944,2024-01-18 09:34:45,0.0
7124,11856,11392,-5604,32767,-14230,2024-01-18 09:34:45,0.0
7216,12228,11808,-3852,32767,-14303,2024-01-18 09:34:45,0.0
7948,12016,11820,-2397,32767,-15611,2024-01-18 09:34:45,0.0
8264,12076,11252,-1163,32767,-18055,2024-01-18 09:34:45,0.0
2176,12376,11372,-385,32767,-19357,2024-01-18 09:34:45,0.0
-3100,12380,12168,133,32767,-17581,2024-01-18 09:34:45,0.0
-7932,12608,13004,524,25451,-13200,2024-01-18 09:34:45,0.0
-9240,12140,11900,1423,19805,-8095,2024-01-18 09:34:45,0.0
-7836,13000,10608,581,15158,-3734,2024-01-18 09:34:45,0.0
-2564,12708,11060,-131,13737,-2074,2024-01-18 09:34:45,0.0
40,12048,11484,-193,11754,-3360,2024-01-18 09:34:45,0.0
-972,12648,11124,63,7909,-4199,2024-01-18 09:34:45,0.0
-4624,12324,10424,450,4764,-3807,2024-01-18 09:34:45,0.0
-7256,12400,9968,-335,1091,-1352,2024-01-18 09:34:45,0.0
-6328,12604,11008,-1031,-4835,1125,2024-01-18 09:34:45,0.0
-7184,12764,12368,-1610,-15313,3421,2024-01-18 09:34:45,0.0
-7892,11356,13740,-1595,-26281,7395,2024-01-18 09:34:45,0.0
-6592,12532,13808,-280,-32768,11041,2024-01-18 09:34:45,0.0
-5164,12872,10312,603,-32768,14362,2024-01-18 09:34:45,0.0
12,12864,9080,-635,-32768,16020,2024-01-18 09:34:45,0.0
2480,13376,12120,-1385,-32768,15665,2024-01-18 09:34:45,0.0
2892,12544,12928,-1143,-32768,15344,2024-01-18 09:34:45,0.0
4728,12272,12552,-182,-32768,15604,2024-01-18 09:34:45,0.0
8248,11424,12312,1584,-32768,14551,2024-01-18 09:34:45,0.0
10396,10944,10464,3477,-32768,12331,2024-01-18 09:34:45,0.0
11656,11084,7364,3732,-32768,10798,2024-01-18 09:34:46,0.0
13380,11280,5420,2474,-32768,8772,2024-01-18 09:34:46,0.0
13340,11672,6308,1032,-29938,6148,2024-01-18 09:34:46,0.0
11560,11668,8396,1053,-25845,4650,2024-01-18 09:34:46,0.0
11856,11108,8768,2738,-22285,3970,2024-01-18 09:34:46,0.0
12516,11408,6192,4353,-16680,2863,2024-01-18 09:34:46,0.0
13188,11244,4316,4593,-9578,1676,2024-01-18 09:34:46,0.0
13944,11568,4084,4532,1846,400,2024-01-18 09:34:46,0.0
15984,10592,2400,4014,20331,-2848,2024-01-18 09:34:46,0.0
18580,10544,592,3598,32767,-6588,2024-01-18 09:34:46,0.0
20304,11256,68,978,32767,-11219,2024-01-18 09:34:46,0.0
15412,13036,1080,-3237,32767,-17428,2024-01-18 09:34:46,0.0
8204,11052,4892,-3311,32767,-17967,2024-01-18 09:34:46,0.0
5848,12332,4012,-5408,32767,-16948,2024-01-18 09:34:46,0.0
6756,12072,6012,-7415,32767,-16953,2024-01-18 09:34:46,0.0
2520,12672,10764,-7847,32767,-16829,2024-01-18 09:34:46,0.0
-844,12480,13792,-6479,32767,-14991,2024-01-18 09:34:46,0.0
-7416,11628,20884,-3476,20670,-9885,2024-01-18 09:34:46,0.0
-4704,12436,14220,-906,10767,-6054,2024-01-18 09:34:46,0.0
-4996,11856,10540,-433,6638,-2751,2024-01-18 09:34:46,0.0
972,11844,8184,-1831,6158,-493,2024-01-18 09:34:46,0.0
4636,12756,9776,-4232,7416,-2671,2024-01-18 09:34:46,0.0
2156,12256,13528,-5593,4954,-4440,2024-01-18 09:34:46,0.0
-2032,12820,17544,-3992,-347,-3949,2024-01-18 09:34:46,0.0
-5476,12048,18344,-1631,-5331,-1379,2024-01-18 09:34:46,0.0
-3364,11796,16560,882,-6455,1327,2024-01-18 09:34:46,0.0
132,12240,14408,1457,-5085,1882,2024-01-18 09:34:46,0.0
2160,12384,13080,995,-3552,1178,2024-01-18 09:34:46,0.0
2084,12680,12980,-77,-3556,218,2024-01-18 09:34:46,0.0
-608,12072,13324,-358,-2982,16,2024-01-18 09:34:46,0.0
-1328,11968,11556,-532,-972,1532,2024-01-18 09:34:46,0.0
52,12180,11020,-1802,-2072,2395,2024-01-18 09:34:46,0.0
-328,12400,12244,-3175,-5867,3291,2024-01-18 09:34:46,0.0
-1540,12008,14404,-3355,-12912,4528,2024-01-18 09:34:46,0.0
-3404,10908,14732,-1773,-19243,6941,2024-01-18 09:34:46,0.0
596,10476,11792,517,-12578,9229,2024-01-18 09:34:46,0.0
7564,10772,8656,28,-4396,8225,2024-01-18 09:34:46,0.0
7660,12160,9528,-2600,-3285,5990,2024-01-18 09:34:46,0.0
5412,12588,10480,-4885,-6967,4590,2024-01-18 09:34:46,0.0
1336,12128,11944,-5944,-11897,5299,2024-01-18 09:34:46,0.0
