acceleration_x,acceleration_y,acceleration_z,gyroscope_x,gyroscope_y,gyroscope_z,timestamp,label
2668,-324,19020,-171,196,-184,2024-01-18 09:54:24,0.0
2608,-236,18920,-160,169,-190,2024-01-18 09:54:24,0.0
2604,-268,18948,-176,176,-179,2024-01-18 09:54:24,0.0
2748,-276,19072,-164,197,-169,2024-01-18 09:54:24,0.0
2672,-304,19056,-180,194,-200,2024-01-18 09:54:24,0.0
2724,-312,19012,-169,203,-191,2024-01-18 09:54:24,0.0
2648,-348,19000,-162,198,-190,2024-01-18 09:54:24,0.0
2744,-304,18828,-166,165,-166,2024-01-18 09:54:24,0.0
2604,-280,18984,-153,203,-193,2024-01-18 09:54:24,0.0
2644,-304,18916,-171,191,-209,2024-01-18 09:54:24,0.0
2704,-300,18884,-169,181,-181,2024-01-18 09:54:24,0.0
2728,-276,18912,-146,202,-192,2024-01-18 09:54:24,0.0
2680,-288,18960,-152,178,-188,2024-01-18 09:54:24,0.0
2716,-288,19056,-174,193,-191,2024-01-18 09:54:24,0.0
2688,-324,18924,-158,196,-199,2024-01-18 09:54:24,0.0
2628,-344,18960,-171,183,-183,2024-01-18 09:54:24,0.0
2796,-324,18880,-155,216,-179,2024-01-18 09:54:24,0.0
2652,-264,19032,-170,201,-189,2024-01-18 09:54:24,0.0
2648,-340,18936,-152,193,-181,2024-01-18 09:54:24,0.0
2700,-312,19036,-186,187,-194,2024-01-18 09:54:24,0.0
2692,-280,18964,-154,193,-201,2024-01-18 09:54:24,0.0
2748,-304,19040,-171,191,-183,2024-01-18 09:54:24,0.0
2704,-380,19108,-152,182,-191,2024-01-18 09:54:24,0.0
2708,-372,19076,-165,185,-155,2024-01-18 09:54:24,0.0
2632,-348,18824,-181,192,-189,2024-01-18 09:54:24,0.0
2720,-320,18820,-143,194,-206,2024-01-18 09:54:24,0.0
2580,-304,18976,-168,196,-172,2024-01-18 09:54:24,0.0
2700,-324,18984,-138,188,-177,2024-01-18 09:54:24,0.0
2660,-456,19076,-166,202,-178,2024-01-18 09:54:24,0.0
2696,-340,19028,-161,196,-184,2024-01-18 09:54:24,0.0
2652,-332,19004,-157,175,-199,2024-01-18 09:54:24,0.0
2628,-308,18980,-163,201,-173,2024-01-18 09:54:24,0.0
2668,-360,19076,-163,198,-176,2024-01-18 09:54:24,0.0
2712,-292,18764,-169,195,-185,2024-01-18 09:54:24,0.0
2660,-360,18956,-184,198,-175,2024-01-18 09:54:24,0.0
2768,-324,18860,-181,185,-187,2024-01-18 09:54:24,0.0
2648,-364,18948,-157,160,-189,2024-01-18 09:54:24,0.0
2652,-304,18880,-169,195,-205,2024-01-18 09:54:24,0.0
2568,-332,18820,-168,194,-184,2024-01-18 09:54:24,0.0
2652,-332,18964,-183,164,-184,2024-01-18 09:54:24,0.0
2560,-352,18920,-160,213,-191,2024-01-18 09:54:24,0.0
2676,-304,19128,-168,185,-170,2024-01-18 09:54:24,0.0
2728,-344,18928,-167,195,-183,2024-01-18 09:54:24,0.0
2700,-304,18940,-177,193,-201,2024-01-18 09:54:24,0.0
2736,-252,19060,-173,191,-222,2024-01-18 09:54:24,0.0
2704,-328,18944,-151,200,-168,2024-01-18 09:54:24,0.0
2620,-324,18932,-146,188,-209,2024-01-18 09:54:24,0.0
2704,-332,19036,-166,194,-188,2024-01-18 09:54:24,0.0
2632,-232,18976,-160,181,-178,2024-01-18 09:54:24,0.0
2652,-352,18956,-160,187,-181,2024-01-18 09:54:24,0.0
2648,-196,19028,-154,193,-178,2024-01-18 09:54:24,0.0
2708,-340,18940,-147,208,-189,2024-01-18 09:54:24,0.0
2704,-344,18948,-147,169,-182,2024-01-18 09:54:24,0.0
2700,-312,18964,-174,186,-184,2024-01-18 09:54:25,0.0
2736,-332,18956,-164,196,-190,2024-01-18 09:54:25,0.0
2600,-348,19132,-160,193,-178,2024-01-18 09:54:25,0.0
2600,-284,18904,-155,191,-178,2024-01-18 09:54:25,0.0
2576,-232,19000,-161,178,-177,2024-01-18 09:54:25,0.0
2776,-180,18944,-156,196,-180,2024-01-18 09:54:25,0.0
2636,-328,19020,-149,200,-182,2024-01-18 09:54:25,0.0
2572,-352,18948,-158,203,-186,2024-01-18 09:54:25,0.0
2636,-416,19032,-185,191,-189,2024-01-18 09:54:25,0.0
2636,-292,18908,-183,200,-170,2024-01-18 09:54:25,0.0
2712,-292,19064,-163,192,-189,2024-01-18 09:54:25,0.0
2696,-256,19000,-155,195,-176,2024-01-18 09:54:25,0.0
2652,-316,19048,-191,191,-185,2024-01-18 09:54:25,0.0
2672,-348,18992,-181,180,-164,2024-01-18 09:54:25,0.0
2756,-348,19120,-177,190,-181,2024-01-18 09:54:25,0.0
2680,-300,19188,-157,174,-187,2024-01-18 09:54:25,0.0
2716,-300,18844,-170,182,-189,2024-01-18 09:54:25,0.0
2652,-340,19036,-155,170,-191,2024-01-18 09:54:25,0.0
2648,-452,19044,-185,167,-192,2024-01-18 09:54:25,0.0
2692,-332,18904,-132,178,-177,2024-01-18 09:54:25,0.0
2700,-348,18944,-184,219,-194,2024-01-18 09:54:25,0.0
2740,-384,18844,-160,202,-184,2024-01-18 09:54:25,0.0
2592,-292,19008,-164,209,-183,2024-01-18 09:54:25,0.0
2684,-320,18964,-165,192,-186,2024-01-18 09:54:25,0.0
2600,-272,19112,-165,181,-168,2024-01-18 09:54:25,0.0
2728,-276,18948,-170,173,-198,2024-01-18 09:54:25,0.0
2628,-280,19052,-166,186,-186,2024-01-18 09:54:25,0.0
2752,-284,19012,-142,183,-195,2024-01-18 09:54:25,0.0
2644,-280,18880,-142,170,-188,2024-01-18 09:54:25,0.0
2644,-324,18972,-157,191,-194,2024-01-18 09:54:25,0.0
2676,-436,19040,-185,184,-185,2024-01-18 09:54:25,0.0
2812,-268,18800,-178,174,-164,2024-01-18 09:54:25,0.0
2640,-308,18964,-161,197,-186,2024-01-18 09:54:25,0.0
2696,-320,19012,-150,203,-202,2024-01-18 09:54:25,0.0
2608,-364,19024,-159,196,-189,2024-01-18 09:54:25,0.0
2780,-340,18976,-167,196,-184,2024-01-18 09:54:25,0.0
2668,-304,18792,-174,184,-201,2024-01-18 09:54:25,0.0
2660,-364,18896,-169,178,-203,2024-01-18 09:54:25,0.0
2652,-248,19048,-150,194,-172,2024-01-18 09:54:25,0.0
2748,-372,18848,-159,188,-168,2024-01-18 09:54:25,0.0
2584,-328,19104,-161,174,-188,2024-01-18 09:54:25,0.0
2736,-340,18996,-169,202,-191,2024-01-18 09:54:25,0.0
2664,-296,19028,-180,186,-192,2024-01-18 09:54:25,0.0
2644,-280,18872,-159,199,-175,2024-01-18 09:54:25,0.0
2616,-416,19036,-147,182,-158,2024-01-18 09:54:25,0.0
2748,-296,19032,-144,176,-183,2024-01-18 09:54:25,0.0
2724,-280,18920,-162,180,-179,2024-01-18 09:54:25,
2648,-356,18916,-170,202,-180,2024-01-18 09:54:25,0.0
2684,-368,19024,-167,186,-163,2024-01-18 09:54:25,0.0
2712,-244,19008,-142,197,-170,2024-01-18 09:54:25,0.0
2716,-368,18948,-170,171,-204,2024-01-18 09:54:25,0.0
2712,-280,18924,-150,189,-199,2024-01-18 09:54:25,0.0
2676,-268,18840,-176,180,-176,2024-01-18 09:54:25,0.0
2724,-320,18756,-161,188,-218,2024-01-18 09:54:25,0.0
2604,-376,18956,-171,202,-182,2024-01-18 09:54:25,0.0
2600,-296,18928,-167,179,-193,2024-01-18 09:54:25,0.0
2652,-308,18996,-166,190,-197,2024-01-18 09:54:25,0.0
2700,-288,18872,-198,184,-186,2024-01-18 09:54:25,0.0
2636,-268,19008,-179,189,-191,2024-01-18 09:54:25,0.0
2636,-316,19040,-157,184,-183,2024-01-18 09:54:25,0.0
2712,-292,19016,-176,203,-179,2024-01-18 09:54:26,0.0
2668,-224,18968,-191,165,-174,2024-01-18 09:54:26,0.0
2624,-344,19200,-184,197,-191,2024-01-18 09:54:26,0.0
2688,-308,18928,-162,188,-195,2024-01-18 09:54:26,0.0
2624,-324,18988,-170,209,-206,2024-01-18 09:54:26,0.0
2640,-256,19000,-155,193,-180,2024-01-18 09:54:26,0.0
2664,-280,18984,-168,207,-150,2024-01-18 09:54:26,0.0
2672,-316,18956,-181,196,-179,2024-01-18 09:54:26,0.0
2672,-292,18924,-163,194,-183,2024-01-18 09:54:26,0.0
2696,-284,18944,-179,194,-187,2024-01-18 09:54:26,0.0
2668,-380,18892,-153,213,-200,2024-01-18 09:54:26,0.0
2740,-392,19096,-157,172,-178,2024-01-18 09:54:26,0.0
2648,-324,18872,-152,220,-188,2024-01-18 09:54:26,0.0
2652,-292,18984,-168,173,-198,2024-01-18 09:54:26,0.0
2616,-316,19064,-185,195,-199,2024-01-18 09:54:26,0.0
2600,-308,19008,-180,196,-181,2024-01-18 09:54:26,0.0
2708,-344,19088,-150,200,-176,2024-01-18 09:54:26,0.0
2652,-340,18908,-148,195,-181,2024-01-18 09:54:26,0.0
2720,-392,19060,-139,189,-184,2024-01-18 09:54:26,0.0
2660,-388,19112,-173,180,-197,2024-01-18 09:54:26,0.0
2648,-356,19060,-176,189,-177,2024-01-18 09:54:26,0.0
2732,-256,18856,-160,180,-182,2024-01-18 09:54:26,0.0
2720,-328,18952,-156,182,-167,2024-01-18 09:54:26,0.0
2696,-276,18956,-167,202,-191,2024-01-18 09:54:26,0.0
2740,-320,18912,-184,181,-198,2024-01-18 09:54:26,0.0
2608,-240,19020,-166,193,-184,2024-01-18 09:54:26,0.0
2664,-240,18988,-155,210,-189,2024-01-18 09:54:26,0.0
2636,-324,19036,-180,183,-171,2024-01-18 09:54:26,0.0
2732,-392,19012,-162,209,-171,2024-01-18 09:54:26,0.0
2636,-360,18968,-185,182,-171,2024-01-18 09:54:26,0.0
2660,-276,19020,-189,192,-194,2024-01-18 09:54:26,0.0
2688,-264,18768,-166,210,-197,2024-01-18 09:54:26,0.0
2700,-304,19352,-152,211,-171,2024-01-18 09:54:26,0.0
2704,-220,18908,-151,178,-167,2024-01-18 09:54:26,0.0
2620,-336,18924,-159,176,-185,2024-01-18 09:54:26,0.0
2600,-416,18960,-180,190,-181,2024-01-18 09:54:26,0.0
2704,-356,18876,-163,190,-197,2024-01-18 09:54:26,0.0
2684,-320,18948,-161,176,-178,2024-01-18 09:54:26,0.0
2712,-292,18920,-175,191,-187,2024-01-18 09:54:26,0.0
2644,-196,19084,-167,217,-188,2024-01-18 09:54:26,0.0
2672,-320,19032,-153,183,-171,2024-01-18 09:54:26,0.0
2736,-380,19064,-171,183,-184,2024-01-18 09:54:26,0.0
2628,-320,19008,-143,185,-179,2024-01-18 09:54:26,0.0
2712,-300,19052,-169,212,-179,2024-01-18 09:54:26,0.0
2688,-368,19052,-174,210,-189,2024-01-18 09:54:26,0.0
2640,-304,18932,-189,178,-169,2024-01-18 09:54:26,0.0
2624,-308,18964,-192,178,-162,2024-01-18 09:54:26,0.0
2732,-132,18848,-189,221,-190,2024-01-18 09:54:26,0.0
2680,-228,19120,-175,184,-181,2024-01-18 09:54:26,0.0
2660,-344,19076,-183,188,-207,2024-01-18 09:54:26,0.0
2480,-404,18988,-171,177,-173,2024-01-18 09:54:26,0.0
2708,-328,19180,-161,187,-208,2024-01-18 09:54:26,0.0
2616,-304,19028,-164,208,-189,2024-01-18 09:54:26,0.0
2620,-256,18976,-166,200,-193,2024-01-18 09:54:26,0.0
2696,-336,18952,-155,192,-183,2024-01-18 09:54:26,0.0
2692,-380,19012,-167,176,-172,2024-01-18 09:54:26,0.0
2652,-284,18904,-158,204,-194,2024-01-18 09:54:26,0.0
2720,-260,19000,-164,188,-179,2024-01-18 09:54:26,0.0
2624,-224,18924,-198,176,-199,2024-01-18 09:54:26,0.0
2652,-236,19148,-160,198,-177,2024-01-18 09:54:27,0.0
2600,-260,18916,-173,167,-197,2024-01-18 09:54:27,0.0
2700,-268,18952,-168,195,-176,2024-01-18 09:54:27,0.0
2652,-220,18988,-162,181,-183,2024-01-18 09:54:27,0.0
2684,-352,19028,-168,176,-193,2024-01-18 09:54:27,0.0
2676,-272,18944,-179,218,-174,2024-01-18 09:54:27,0.0
2660,-368,19044,-152,191,-188,2024-01-18 09:54:27,0.0
2696,-292,19100,-191,179,-190,2024-01-18 09:54:27,0.0
2684,-352,18936,-184,202,-199,2024-01-18 09:54:27,0.0
2756,-308,19128,-182,193,-182,2024-01-18 09:54:27,0.0
2608,-296,19012,-176,185,-166,2024-01-18 09:54:27,0.0
2664,-336,18948,-200,197,-213,2024-01-18 09:54:27,0.0
2592,-276,19100,-176,200,-191,2024-01-18 09:54:27,0.0
2716,-308,18984,-182,177,-180,2024-01-18 09:54:27,0.0
2768,-292,19076,-174,194,-168,2024-01-18 09:54:27,0.0
2688,-256,18952,-179,191,-181,2024-01-18 09:54:27,0.0
2552,-248,19192,-167,191,-187,2024-01-18 09:54:27,0.0
2688,-364,19008,-170,179,-198,2024-01-18 09:54:27,0.0
2692,-312,19096,-159,182,-188,2024-01-18 09:54:27,0.0
2608,-276,19040,-176,185,-182,2024-01-18 09:54:27,0.0
2676,-380,18900,-178,182,-175,2024-01-18 09:54:27,0.0
2768,-296,19028,-157,182,-194,2024-01-18 09:54:27,0.0
2640,-416,18892,-146,190,-194,2024-01-18 09:54:27,0.0
2732,-368,19128,-154,172,-186,2024-01-18 09:54:27,0.0
2844,-356,19048,-170,195,-189,2024-01-18 09:54:27,0.0
2648,-340,18860,-172,196,-178,2024-01-18 09:54:27,0.0
2704,-320,18760,-165,192,-191,2024-01-18 09:54:27,0.0
2636,-368,18944,-169,193,-183,2024-01-18 09:54:27,
2724,-284,19080,-174,199,-179,2024-01-18 09:54:27,0.0
2580,-264,18832,-157,191,-173,2024-01-18 09:54:27,0.0
2672,-204,18964,-177,188,-198,2024-01-18 09:54:27,0.0
2608,-240,18912,-181,179,-181,2024-01-18 09:54:27,0.0
2664,-332,18884,-174,208,-173,2024-01-18 09:54:27,0.0
2736,-280,18944,-153,187,-164,2024-01-18 09:54:27,0.0
2648,-296,18964,-141,176,-194,2024-01-18 09:54:27,0.0
2576,-336,19112,-164,190,-184,2024-01-18 09:54:27,0.0
2728,-264,18856,-169,187,-200,2024-01-18 09:54:27,0.0
2680,-396,18964,-154,195,-200,2024-01-18 09:54:27,0.0
2756,-352,19012,-171,177,-161,2024-01-18 09:54:27,0.0
2712,-312,19052,-191,169,-190,2024-01-18 09:54:27,0.0
2704,-336,19080,-159,207,-164,2024-01-18 09:54:27,0.0
2612,-256,18924,-172,195,-174,2024-01-18 09:54:27,0.0
2664,-300,19224,-154,194,-209,2024-01-18 09:54:27,0.0
2696,-344,18940,-158,193,-169,2024-01-18 09:54:27,0.0
2668,-304,19024,-172,198,-205,2024-01-18 09:54:27,0.0
2632,-252,19028,-165,201,-197,2024-01-18 09:54:27,0.0
2568,-320,19072,-173,199,-205,2024-01-18 09:54:27,0.0
2616,-376,18940,-154,184,-196,2024-01-18 09:54:27,0.0
2636,-308,19056,-145,176,-189,2024-01-18 09:54:27,0.0
2692,-312,18900,-131,196,-183,2024-01-18 09:54:27,0.0
2720,-256,19056,-158,189,-194,2024-01-18 09:54:27,0.0
2656,-252,19020,-182,175,-195,2024-01-18 09:54:27,0.0
2660,-260,18916,-159,179,-170,2024-01-18 09:54:27,0.0
2608,-288,19140,-157,188,-193,2024-01-18 09:54:27,0.0
2708,-284,18900,-189,199,-210,2024-01-18 09:54:27,0.0
2680,-340,18972,-173,198,-191,2024-01-18 09:54:27,0.0
2664,-272,18860,-182,177,-189,2024-01-18 09:54:27,0.0
2744,-324,18780,-171,183,-183,2024-01-18 09:54:27,0.0
2612,-328,18892,-151,172,-184,2024-01-18 09:54:27,0.0
2672,-328,19020,-141,191,-177,2024-01-18 09:54:27,0.0
2660,-276,19040,-153,188,-190,2024-01-18 09:54:27,0.0
2676,-324,19000,-165,205,-194,2024-01-18 09:54:28,0.0
2704,-344,19116,-191,179,-176,2024-01-18 09:54:28,0.0
2664,-312,19056,-175,191,-169,2024-01-18 09:54:28,0.0
2668,-332,19020,-163,189,-179,2024-01-18 09:54:28,0.0
2676,-364,19080,-169,205,-191,2024-01-18 09:54:28,0.0
2748,-364,18896,-152,177,-196,2024-01-18 09:54:28,0.0
2732,-352,19032,-158,216,-175,2024-01-18 09:54:28,0.0
2680,-228,18848,-150,176,-177,2024-01-18 09:54:28,0.0
2680,-280,19000,-186,175,-190,2024-01-18 09:54:28,0.0
2712,-300,18916,-158,173,-180,2024-01-18 09:54:28,0.0
2572,-380,19144,-164,189,-186,2024-01-18 09:54:28,0.0
2728,-436,19136,-147,191,-177,2024-01-18 09:54:28,0.0
2616,-360,18792,-157,193,-174,2024-01-18 09:54:28,0.0
2736,-360,18968,-179,183,-186,2024-01-18 09:54:28,0.0
2748,-224,18968,-173,185,-179,2024-01-18 09:54:28,0.0
2624,-212,18972,-161,183,-171,2024-01-18 09:54:28,0.0
2704,-360,18876,-156,205,-194,2024-01-18 09:54:28,0.0
2784,-344,18952,-174,199,-189,2024-01-18 09:54:28,0.0
2676,-332,19032,-156,202,-185,2024-01-18 09:54:28,0.0
2684,-296,19096,-163,170,-164,2024-01-18 09:54:28,0.0
2588,-324,18948,-170,213,-175,2024-01-18 09:54:28,0.0
2664,-296,19016,-159,191,-180,2024-01-18 09:54:28,0.0
2728,-336,18960,-187,194,-190,2024-01-18 09:54:28,0.0
2676,-284,19044,-186,196,-191,2024-01-18 09:54:28,0.0
2600,-332,18776,-192,166,-191,2024-01-18 09:54:28,0.0
2640,-236,19032,-155,199,-183,2024-01-18 09:54:28,0.0
2624,-332,18952,-149,200,-198,2024-01-18 09:54:28,0.0
2676,-304,18960,-167,181,-192,2024-01-18 09:54:28,0.0
2672,-336,18936,-143,200,-197,2024-01-18 09:54:28,0.0
2680,-304,18920,-172,204,-175,2024-01-18 09:54:28,0.0
2688,-296,19012,-172,185,-192,2024-01-18 09:54:28,0.0
2652,-328,18968,-167,186,-190,2024-01-18 09:54:28,0.0
2544,-368,18964,-164,186,-176,2024-01-18 09:54:28,0.0
2668,-376,19032,-144,192,-210,2024-01-18 09:54:28,0.0
2780,-308,18976,-166,171,-178,2024-01-18 09:54:28,0.0
2672,-260,18968,-163,166,-176,2024-01-18 09:54:28,0.0
2640,-328,19092,-132,194,-166,2024-01-18 09:54:28,0.0
2720,-304,19028,-187,188,-193,2024-01-18 09:54:28,0.0
2692,-340,19008,-170,195,-192,2024-01-18 09:54:28,0.0
2648,-348,18908,-153,185,-183,2024-01-18 09:54:28,0.0
2792,-284,19008,-171,184,-189,2024-01-18 09:54:28,0.0
2692,-348,18928,-158,191,-199,2024-01-18 09:54:28,0.0
2648,-228,19128,-146,200,-194,2024-01-18 09:54:28,0.0
2752,-312,18912,-177,173,-184,2024-01-18 09:54:28,0.0
2632,-320,19076,-182,178,-187,2024-01-18 09:54:28,0.0
2656,-332,19004,-163,198,-179,2024-01-18 09:54:28,0.0
2720,-324,18944,-166,187,-192,2024-01-18 09:54:28,0.0
2620,-288,19004,-158,192,-192,2024-01-18 09:54:28,0.0
2760,-332,18836,-176,185,-174,2024-01-18 09:54:28,0.0
2712,-352,18932,-144,202,-182,2024-01-18 09:54:28,0.0
2784,-336,19104,-185,180,-193,2024-01-18 09:54:28,0.0
2748,-372,18868,-175,184,-173,2024-01-18 09:54:28,0.0
2636,-356,18896,-160,179,-177,2024-01-18 09:54:28,0.0
2736,-352,19028,-180,188,-181,2024-01-18 09:54:28,0.0
2652,-240,18792,-181,193,-190,2024-01-18 09:54:28,0.0
2712,-336,18996,-156,188,-177,2024-01-18 09:54:28,0.0
2708,-284,19064,-151,176,-181,2024-01-18 09:54:28,0.0
2644,-288,18888,-184,170,-175,2024-01-18 09:54:28,0.0
2688,-236,18964,-172,197,-185,2024-01-18 09:54:28,0.0
2684,-320,18884,-172,194,-185,2024-01-18 09:54:28,0.0
2608,-292,18884,-163,193,-172,2024-01-18 09:54:29,0.0
2656,-288,19092,-160,166,-181,2024-01-18 09:54:29,0.0
2680,-312,18976,-156,198,-167,2024-01-18 09:54:29,0.0
2724,-336,19040,-150,184,-169,2024-01-18 09:54:29,0.0
2664,-332,18980,-163,209,-194,2024-01-18 09:54:29,0.0
2664,-324,18952,-141,190,-187,2024-01-18 09:54:29,0.0
2600,-320,19100,-178,183,-183,2024-01-18 09:54:29,
2704,-316,19008,-172,184,-179,2024-01-18 09:54:29,0.0
2680,-356,19008,-157,193,-187,2024-01-18 09:54:29,0.0
2636,-208,19032,-171,186,-185,2024-01-18 09:54:29,0.0
2648,-292,18940,-153,175,-185,2024-01-18 09:54:29,0.0
2800,-380,18924,-175,178,-201,2024-01-18 09:54:29,0.0
2592,-420,19036,-165,184,-188,2024-01-18 09:54:29,0.0
2588,-304,18836,-187,183,-201,2024-01-18 09:54:29,0.0
2636,-340,18792,-156,209,-156,2024-01-18 09:54:29,0.0
2588,-364,18972,-166,169,-172,2024-01-18 09:54:29,0.0
2696,-276,19036,-168,178,-195,2024-01-18 09:54:29,0.0
2680,-308,18904,-178,189,-193,2024-01-18 09:54:29,0.0
2724,-352,19040,-164,190,-187,2024-01-18 09:54:29,0.0
2592,-352,19012,-156,198,-184,2024-01-18 09:54:29,0.0
2676,-424,18972,-154,203,-175,2024-01-18 09:54:29,0.0
2640,-336,19028,-180,190,-187,2024-01-18 09:54:29,0.0
2608,-268,18964,-152,203,-188,2024-01-18 09:54:29,0.0
2656,-304,19028,-173,203,-181,2024-01-18 09:54:29,0.0
2716,-316,19040,-143,187,-187,2024-01-18 09:54:29,0.0
2732,-404,18900,-142,170,-202,2024-01-18 09:54:29,0.0
2620,-260,18956,-167,194,-200,2024-01-18 09:54:29,0.0
2596,-268,18912,-173,209,-188,2024-01-18 09:54:29,0.0
2704,-288,18888,-167,161,-195,2024-01-18 09:54:29,0.0
2640,-344,18988,-170,182,-170,2024-01-18 09:54:29,0.0
2684,-276,18988,-166,193,-188,2024-01-18 09:54:29,0.0
2720,-308,18964,-172,178,-211,2024-01-18 09:54:29,0.0
2692,-336,19024,-160,186,-161,2024-01-18 09:54:29,0.0
2636,-292,18964,-175,176,-168,2024-01-18 09:54:29,0.0
2680,-336,18856,-165,186,-180,2024-01-18 09:54:29,0.0
2724,-332,18880,-186,170,-196,2024-01-18 09:54:29,0.0
2592,-264,18848,-159,193,-192,2024-01-18 09:54:29,0.0
2764,-300,18948,-192,194,-193,2024-01-18 09:54:29,0.0
2680,-264,18912,-147,174,-166,2024-01-18 09:54:29,0.0
2548,-268,19072,-166,200,-176,2024-01-18 09:54:29,0.0
2568,-204,18984,-184,186,-179,2024-01-18 09:54:29,0.0
2672,-292,18972,-153,196,-174,2024-01-18 09:54:29,0.0
2684,-344,18908,-151,190,-190,2024-01-18 09:54:29,0.0
2608,-284,19156,-161,181,-179,2024-01-18 09:54:29,0.0
2664,-344,18984,-154,194,-196,2024-01-18 09:54:29,0.0
2632,-300,19052,-158,160,-195,2024-01-18 09:54:29,0.0
2588,-356,18960,-192,194,-188,2024-01-18 09:54:29,0.0
2744,-324,19040,-163,177,-194,2024-01-18 09:54:29,0.0
2644,-364,18944,-171,194,-176,2024-01-18 09:54:29,0.0
2652,-256,18956,-163,209,-183,2024-01-18 09:54:29,0.0
2656,-376,18944,-170,182,-186,2024-01-18 09:54:29,0.0
2604,-288,18844,-152,188,-182,2024-01-18 09:54:29,0.0
2704,-332,19048,-156,209,-196,2024-01-18 09:54:29,0.0
2760,-308,18952,-184,214,-189,2024-01-18 09:54:29,0.0
2696,-404,18932,-164,186,-180,2024-01-18 09:54:29,0.0
2736,-320,19104,-151,187,-186,2024-01-18 09:54:29,0.0
2640,-412,19012,-157,189,-168,2024-01-18 09:54:29,0.0
2720,-364,19100,-190,165,-179,2024-01-18 09:54:29,0.0
2604,-392,18900,-164,184,-185,2024-01-18 09:54:29,0.0
2632,-316,18932,-168,190,-181,2024-01-18 09:54:30,0.0
2672,-400,19072,-160,193,-181,2024-01-18 09:54:30,0.0
2632,-300,18948,-170,194,-172,2024-01-18 09:54:30,0.0
2696,-256,19008,-179,182,-177,2024-01-18 09:54:30,0.0
2756,-256,19136,-155,207,-173,2024-01-18 09:54:30,0.0
2656,-288,18772,-157,201,-186,2024-01-18 09:54:30,0.0
2752,-336,18988,-149,187,-180,2024-01-18 09:54:30,0.0
2820,-280,18920,-148,172,-213,2024-01-18 09:54:30,0.0
2720,-312,19048,-160,213,-176,2024-01-18 09:54:30,0.0
2644,-264,18940,-160,187,-192,2024-01-18 09:54:30,0.0
2568,-276,18932,-153,215,-186,2024-01-18 09:54:30,0.0
2712,-408,19028,-179,195,-197,2024-01-18 09:54:30,0.0
2688,-340,18904,-185,201,-178,2024-01-18 09:54:30,0.0
2652,-360,18908,-162,197,-200,2024-01-18 09:54:30,0.0
2604,-328,18920,-164,207,-196,2024-01-18 09:54:30,0.0
2672,-300,18964,-160,207,-190,2024-01-18 09:54:30,0.0
2676,-320,18732,-163,195,-187,2024-01-18 09:54:30,0.0
2732,-312,19012,-155,187,-191,2024-01-18 09:54:30,0.0
2696,-360,18960,-178,214,-181,2024-01-18 09:54:30,0.0
2728,-300,19152,-157,203,-165,2024-01-18 09:54:30,0.0
2604,-228,19044,-153,202,-187,2024-01-18 09:54:30,0.0
2620,-312,19024,-176,193,-174,2024-01-18 09:54:30,0.0
2576,-388,18924,-166,189,-183,2024-01-18 09:54:30,0.0
2712,-424,19092,-160,187,-189,2024-01-18 09:54:30,0.0
2648,-340,19108,-183,187,-185,2024-01-18 09:54:30,0.0
2632,-320,19032,-189,203,-178,2024-01-18 09:54:30,0.0
2760,-308,19004,-157,186,-207,2024-01-18 09:54:30,0.0
2692,-320,19004,-173,180,-208,2024-01-18 09:54:30,0.0
2672,-368,19080,-148,188,-181,2024-01-18 09:54:30,0.0
2640,-320,18984,-176,191,-163,2024-01-18 09:54:30,0.0
2608,-324,18904,-188,189,-194,2024-01-18 09:54:30,0.0
2580,-412,18888,-164,190,-173,2024-01-18 09:54:30,0.0
2748,-284,18920,-171,196,-192,2024-01-18 09:54:30,0.0
2628,-320,19032,-151,188,-189,2024-01-18 09:54:30,0.0
2628,-380,19160,-164,170,-194,2024-01-18 09:54:30,0.0
2644,-304,18980,-164,198,-175,2024-01-18 09:54:30,0.0
2556,-464,18916,-144,199,-177,2024-01-18 09:54:30,0.0
2696,-316,18976,-154,171,-193,2024-01-18 09:54:30,0.0
2628,-336,18988,-163,185,-179,2024-01-18 09:54:30,0.0
2712,-236,18912,-144,198,-190,2024-01-18 09:54:30,0.0
2676,-276,18944,-187,194,-194,2024-01-18 09:54:30,0.0
2712,-232,18940,-174,176,-189,2024-01-18 09:54:30,0.0
2644,-356,18968,-169,179,-177,2024-01-18 09:54:30,0.0
2680,-176,19176,-176,179,-181,2024-01-18 09:54:30,0.0
2776,-304,19032,-179,188,-187,2024-01-18 09:54:30,0.0
2704,-296,19048,-151,193,-195,2024-01-18 09:54:30,0.0
2736,-236,19084,-181,181,-189,2024-01-18 09:54:30,0.0
2656,-284,19072,-178,181,-191,2024-01-18 09:54:30,
2644,-288,18964,-173,191,-186,2024-01-18 09:54:30,0.0
2712,-300,18848,-174,183,-205,2024-01-18 09:54:30,0.0
2620,-284,18988,-180,182,-175,2024-01-18 09:54:30,0.0
2680,-268,18896,-177,186,-181,2024-01-18 09:54:30,0.0
2628,-272,19104,-177,187,-197,2024-01-18 09:54:30,0.0
2684,-336,18932,-169,196,-183,2024-01-18 09:54:30,0.0
2664,-316,19096,-167,198,-188,2024-01-18 09:54:30,0.0
2640,-248,19028,-183,181,-209,2024-01-18 09:54:30,0.0
2644,-372,18904,-153,186,-171,2024-01-18 09:54:30,0.0
2596,-260,19084,-171,173,-207,2024-01-18 09:54:30,0.0
2696,-312,18844,-161,191,-174,2024-01-18 09:54:30,0.0
2684,-308,18968,-165,171,-181,2024-01-18 09:54:30,0.0
2548,-276,19016,-163,190,-210,2024-01-18 09:54:30,0.0
2668,-388,18908,-170,191,-196,2024-01-18 09:54:31,0.0
2656,-288,19000,-164,180,-184,2024-01-18 09:54:31,0.0
2712,-312,19028,-178,162,-189,2024-01-18 09:54:31,0.0
2684,-304,18964,-155,193,-179,2024-01-18 09:54:31,0.0
2652,-344,18828,-157,188,-151,2024-01-18 09:54:31,0.0
2756,-340,18912,-183,189,-201,2024-01-18 09:54:31,0.0
2612,-308,18840,-143,215,-179,2024-01-18 09:54:31,0.0
2692,-220,18968,-145,182,-188,2024-01-18 09:54:31,0.0
2676,-248,18948,-182,177,-185,2024-01-18 09:54:31,0.0
2608,-276,18920,-170,192,-197,2024-01-18 09:54:31,0.0
2652,-332,18920,-143,183,-193,2024-01-18 09:54:31,0.0
2708,-260,19036,-167,175,-177,2024-01-18 09:54:31,0.0
2652,-408,18796,-157,190,-206,2024-01-18 09:54:31,0.0
2628,-336,19064,-152,176,-184,2024-01-18 09:54:31,0.0
2720,-272,18968,-184,177,-167,2024-01-18 09:54:31,0.0
2764,-208,18972,-163,178,-209,2024-01-18 09:54:31,0.0
2612,-320,19108,-149,166,-174,2024-01-18 09:54:31,0.0
2636,-328,18940,-177,195,-187,2024-01-18 09:54:31,0.0
2652,-248,18940,-177,204,-184,2024-01-18 09:54:31,0.0
2696,-316,19116,-173,209,-189,2024-01-18 09:54:31,0.0
2596,-232,19016,-160,182,-187,2024-01-18 09:54:31,0.0
2672,-380,18892,-167,172,-193,2024-01-18 09:54:31,0.0
2680,-248,19004,-161,171,-187,2024-01-18 09:54:31,0.0
2640,-376,19052,-177,174,-178,2024-01-18 09:54:31,0.0
2636,-344,18880,-167,204,-188,2024-01-18 09:54:31,0.0
2636,-308,19008,-157,175,-186,2024-01-18 09:54:31,0.0
2700,-320,18996,-156,202,-172,2024-01-18 09:54:31,0.0
2620,-340,18808,-162,166,-190,2024-01-18 09:54:31,0.0
2724,-304,18944,-164,182,-188,2024-01-18 09:54:31,0.0
2604,-188,19024,-169,185,-174,2024-01-18 09:54:31,0.0
2596,-324,18972,-179,189,-184,2024-01-18 09:54:31,0.0
2680,-348,19024,-187,196,-192,2024-01-18 09:54:31,0.0
2740,-296,18976,-187,205,-189,2024-01-18 09:54:31,0.0
2676,-296,19084,-171,195,-199,2024-01-18 09:54:31,0.0
2748,-276,18928,-161,197,-187,2024-01-18 09:54:31,0.0
2708,-376,19088,-187,191,-184,2024-01-18 09:54:31,0.0
2656,-296,19056,-163,206,-181,2024-01-18 09:54:31,0.0
2744,-356,18956,-171,193,-200,2024-01-18 09:54:31,0.0
2624,-288,18948,-176,192,-177,2024-01-18 09:54:31,0.0
2672,-244,18968,-153,200,-195,2024-01-18 09:54:31,0.0
2564,-268,18884,-154,197,-177,2024-01-18 09:54:31,0.0
2704,-384,19052,-144,191,-182,2024-01-18 09:54:31,0.0
2704,-316,18940,-173,183,-185,2024-01-18 09:54:31,0.0
2600,-344,18928,-157,168,-196,2024-01-18 09:54:31,0.0
2640,-248,19020,-169,199,-167,2024-01-18 09:54:31,0.0
2520,-288,19044,-170,198,-192,2024-01-18 09:54:31,0.0
2648,-336,19100,-148,207,-185,2024-01-18 09:54:31,0.0
2728,-364,18952,-143,201,-186,2024-01-18 09:54:31,0.0
2764,-284,18980,-172,200,-190,2024-01-18 09:54:31,0.0
2552,-388,18844,-159,193,-189,2024-01-18 09:54:31,0.0
2640,-348,19052,-153,198,-180,2024-01-18 09:54:31,0.0
2592,-352,18948,-151,200,-192,2024-01-18 09:54:31,0.0
2628,-260,18972,-177,176,-177,2024-01-18 09:54:31,0.0
2728,-228,18848,-161,205,-177,2024-01-18 09:54:31,0.0
2748,-296,19044,-170,206,-186,2024-01-18 09:54:31,0.0
2684,-280,18944,-188,198,-188,2024-01-18 09:54:31,0.0
2640,-260,19088,-151,185,-191,2024-01-18 09:54:31,0.0
2652,-344,19004,-140,189,-210,2024-01-18 09:54:31,0.0
2720,-260,19040,-152,194,-184,2024-01-18 09:54:31,0.0
2644,-340,18992,-173,202,-165,2024-01-18 09:54:31,0.0
2620,-336,18848,-163,196,-183,2024-01-18 09:54:32,0.0
2644,-240,19036,-162,203,-199,2024-01-18 09:54:32,0.0
2732,-300,18904,-151,193,-197,2024-01-18 09:54:32,0.0
2660,-344,18904,-177,199,-175,2024-01-18 09:54:32,0.0
2708,-276,18928,-145,197,-183,2024-01-18 09:54:32,0.0
2688,-300,18864,-170,193,-181,2024-01-18 09:54:32,0.0
2664,-356,19116,-169,199,-170,2024-01-18 09:54:32,0.0
2644,-364,18960,-197,170,-191,2024-01-18 09:54:32,0.0
2696,-220,19052,-163,188,-184,2024-01-18 09:54:32,0.0
2676,-248,18868,-172,206,-170,2024-01-18 09:54:32,0.0
2736,-364,18988,-168,182,-202,2024-01-18 09:54:32,0.0
2800,-364,18976,-176,203,-175,2024-01-18 09:54:32,0.0
2620,-292,18972,-151,177,-188,2024-01-18 09:54:32,0.0
2752,-368,19128,-158,186,-178,2024-01-18 09:54:32,0.0
2684,-316,19092,-159,188,-182,2024-01-18 09:54:32,0.0
2608,-280,18936,-168,187,-187,2024-01-18 09:54:32,0.0
2652,-236,19036,-178,194,-188,2024-01-18 09:54:32,0.0
2660,-296,19064,-184,204,-185,2024-01-18 09:54:32,0.0
2636,-332,19112,-171,171,-184,2024-01-18 09:54:32,0.0
2684,-328,18824,-182,196,-173,2024-01-18 09:54:32,0.0
2656,-288,18944,-177,181,-179,2024-01-18 09:54:32,0.0
2644,-288,18896,-150,197,-195,2024-01-18 09:54:32,0.0
2724,-268,18964,-141,197,-186,2024-01-18 09:54:32,0.0
2720,-388,18976,-156,198,-182,2024-01-18 09:54:32,0.0
2688,-300,19000,-146,206,-181,2024-01-18 09:54:32,0.0
2692,-320,18884,-150,200,-185,2024-01-18 09:54:32,0.0
2624,-368,19052,-154,175,-201,2024-01-18 09:54:32,
2684,-332,19020,-180,210,-211,2024-01-18 09:54:32,0.0
2564,-284,18952,-149,199,-184,2024-01-18 09:54:32,0.0
2752,-280,18968,-143,197,-180,2024-01-18 09:54:32,0.0
2636,-320,18960,-149,194,-162,2024-01-18 09:54:32,0.0
2756,-268,19052,-166,168,-172,2024-01-18 09:54:32,0.0
2636,-288,18840,-183,209,-199,2024-01-18 09:54:32,0.0
2652,-340,18984,-136,199,-169,2024-01-18 09:54:32,0.0
2712,-364,18916,-181,203,-185,2024-01-18 09:54:32,0.0
2636,-268,18912,-150,187,-194,2024-01-18 09:54:32,0.0
2720,-220,18932,-166,205,-155,2024-01-18 09:54:32,0.0
2576,-272,19148,-176,205,-174,2024-01-18 09:54:32,0.0
2648,-328,18932,-159,213,-196,2024-01-18 09:54:32,0.0
2620,-296,18820,-176,180,-194,2024-01-18 09:54:32,0.0
2504,-328,19212,-160,195,-193,2024-01-18 09:54:32,0.0
2692,-364,19040,-144,192,-203,2024-01-18 09:54:32,0.0
2720,-320,19056,-169,202,-182,2024-01-18 09:54:32,0.0
2644,-376,18988,-176,197,-195,2024-01-18 09:54:32,0.0
2680,-396,19000,-156,197,-200,2024-01-18 09:54:32,0.0
2596,-312,18996,-160,216,-196,2024-01-18 09:54:32,0.0
2736,-340,18932,-181,192,-184,2024-01-18 09:54:32,0.0
2688,-252,18808,-160,174,-156,2024-01-18 09:54:32,0.0
2692,-316,19004,-142,178,-183,2024-01-18 09:54:32,0.0
2732,-356,18980,-175,200,-165,2024-01-18 09:54:32,0.0
2620,-248,18932,-156,194,-183,2024-01-18 09:54:32,0.0
2772,-260,19024,-154,184,-187,2024-01-18 09:54:32,0.0
2680,-200,19080,-172,161,-188,2024-01-18 09:54:32,0.0
2624,-328,18824,-189,182,-180,2024-01-18 09:54:32,0.0
2628,-272,19084,-168,206,-174,2024-01-18 09:54:32,0.0
2792,-228,18924,-176,182,-183,2024-01-18 09:54:32,0.0
2632,-244,18908,-193,194,-171,2024-01-18 09:54:32,0.0
2728,-344,18872,-167,199,-175,2024-01-18 09:54:32,0.0
2596,-300,19128,-160,156,-196,2024-01-18 09:54:32,0.0
2664,-312,19008,-170,174,-186,2024-01-18 09:54:32,0.0
2688,-296,18932,-142,185,-170,2024-01-18 09:54:32,0.0
2560,-376,18976,-154,191,-177,2024-01-18 09:54:33,0.0
2584,-276,19000,-170,187,-198,2024-01-18 09:54:33,0.0
2688,-280,19024,-174,186,-177,2024-01-18 09:54:33,0.0
2624,-256,18976,-143,187,-189,2024-01-18 09:54:33,0.0
2708,-316,18992,-190,192,-176,2024-01-18 09:54:33,0.0
2704,-376,18976,-181,183,-164,2024-01-18 09:54:33,0.0
2664,-320,18964,-188,183,-171,2024-01-18 09:54:33,0.0
2660,-272,18932,-155,196,-189,2024-01-18 09:54:33,0.0
2536,-280,18888,-177,195,-183,2024-01-18 09:54:33,0.0
2672,-268,18852,-169,197,-182,2024-01-18 09:54:33,0.0
2672,-308,19028,-186,186,-194,2024-01-18 09:54:33,0.0
2708,-308,18964,-137,209,-179,2024-01-18 09:54:33,0.0
2600,-308,19032,-164,199,-188,2024-01-18 09:54:33,0.0
2716,-388,18896,-178,170,-179,2024-01-18 09:54:33,0.0
2592,-412,18992,-152,190,-188,2024-01-18 09:54:33,0.0
2540,-356,18740,-166,175,-174,2024-01-18 09:54:33,0.0
2720,-316,19076,-164,176,-180,2024-01-18 09:54:33,0.0
2716,-416,19096,-170,185,-196,2024-01-18 09:54:33,0.0
2716,-220,18956,-175,181,-187,2024-01-18 09:54:33,0.0
2632,-332,18964,-149,191,-184,2024-01-18 09:54:33,0.0
2612,-352,18952,-142,179,-185,2024-01-18 09:54:33,0.0
2652,-280,19048,-154,208,-184,2024-01-18 09:54:33,0.0
2684,-408,18948,-157,194,-188,2024-01-18 09:54:33,0.0
2632,-320,18932,-180,184,-173,2024-01-18 09:54:33,0.0
2708,-368,19044,-177,205,-194,2024-01-18 09:54:33,0.0
2656,-312,19000,-181,207,-185,2024-01-18 09:54:33,0.0
2668,-348,18988,-166,191,-208,2024-01-18 09:54:33,0.0
2664,-344,19040,-169,191,-214,2024-01-18 09:54:33,0.0
2620,-344,18888,-150,192,-183,2024-01-18 09:54:33,0.0
2712,-388,18952,-190,185,-183,2024-01-18 09:54:33,0.0
2664,-368,19044,-188,186,-185,2024-01-18 09:54:33,0.0
2600,-372,18956,-172,201,-180,2024-01-18 09:54:33,0.0
2700,-344,18932,-148,195,-179,2024-01-18 09:54:33,0.0
2664,-328,18996,-175,210,-174,2024-01-18 09:54:33,0.0
2748,-364,19096,-148,197,-173,2024-01-18 09:54:33,0.0
2664,-388,19100,-170,199,-179,2024-01-18 09:54:33,0.0
2716,-364,19148,-154,188,-209,2024-01-18 09:54:33,0.0
2620,-356,19016,-165,189,-177,2024-01-18 09:54:33,0.0
2688,-260,19000,-159,211,-199,2024-01-18 09:54:33,0.0
2620,-364,18872,-183,211,-188,2024-01-18 09:54:33,0.0
2672,-252,19120,-201,178,-178,2024-01-18 09:54:33,0.0
2696,-348,19068,-154,206,-187,2024-01-18 09:54:33,0.0
2720,-296,18964,-166,201,-168,2024-01-18 09:54:33,0.0
2672,-316,18956,-145,186,-189,2024-01-18 09:54:33,0.0
2624,-320,19024,-146,155,-180,2024-01-18 09:54:33,0.0
2732,-280,19060,-162,181,-166,2024-01-18 09:54:33,0.0
2584,-300,18968,-141,187,-184,2024-01-18 09:54:33,0.0
2652,-312,19004,-187,212,-171,2024-01-18 09:54:33,0.0
2656,-276,19064,-152,179,-167,2024-01-18 09:54:33,0.0
2616,-324,19064,-184,183,-186,2024-01-18 09:54:33,0.0
2668,-356,18992,-185,201,-175,2024-01-18 09:54:33,0.0
2704,-336,18908,-156,197,-178,2024-01-18 09:54:33,0.0
2664,-368,19024,-167,192,-170,2024-01-18 09:54:33,0.0
2636,-356,18976,-173,183,-187,2024-01-18 09:54:33,0.0
2672,-308,19084,-151,188,-203,2024-01-18 09:54:33,0.0
2768,-316,19068,-160,189,-173,2024-01-18 09:54:33,0.0
2604,-324,18960,-149,192,-172,2024-01-18 09:54:33,0.0
2648,-328,18968,-167,180,-185,2024-01-18 09:54:33,0.0
2664,-344,18888,-186,173,-175,2024-01-18 09:54:33,0.0
2732,-304,18980,-161,198,-172,2024-01-18 09:54:33,0.0
2752,-288,18992,-162,170,-183,2024-01-18 09:54:34,0.0
2744,-292,19012,-173,199,-180,2024-01-18 09:54:34,0.0
2756,-300,18992,-173,192,-191,2024-01-18 09:54:34,0.0
2640,-412,18868,-173,187,-176,2024-01-18 09:54:34,0.0
2676,-320,18892,-169,189,-187,2024-01-18 09:54:34,0.0
2672,-316,18876,-150,190,-191,2024-01-18 09:54:34,
2724,-320,18968,-192,203,-159,2024-01-18 09:54:34,0.0
2620,-216,18924,-159,189,-177,2024-01-18 09:54:34,0.0
2740,-280,18984,-158,204,-183,2024-01-18 09:54:34,0.0
2572,-320,19056,-158,181,-184,2024-01-18 09:54:34,0.0
2752,-356,18964,-171,196,-209,2024-01-18 09:54:34,0.0
2612,-364,19040,-180,186,-188,2024-01-18 09:54:34,0.0
2596,-268,18860,-185,190,-198,2024-01-18 09:54:34,0.0
2664,-320,18868,-156,197,-190,2024-01-18 09:54:34,0.0
2636,-328,18960,-166,200,-196,2024-01-18 09:54:34,0.0
2616,-196,18908,-155,190,-179,2024-01-18 09:54:34,0.0
2644,-384,18952,-154,189,-149,2024-01-18 09:54:34,0.0
2624,-328,18864,-166,199,-202,2024-01-18 09:54:34,0.0
2644,-244,18900,-147,193,-161,2024-01-18 09:54:34,0.0
2676,-264,18868,-168,205,-187,2024-01-18 09:54:34,0.0
2648,-280,19024,-162,186,-201,2024-01-18 09:54:34,0.0
2724,-320,18988,-177,202,-190,2024-01-18 09:54:34,0.0
2656,-260,19052,-166,179,-164,2024-01-18 09:54:34,0.0
2720,-236,18940,-189,172,-189,2024-01-18 09:54:34,0.0
2652,-336,18968,-166,174,-168,2024-01-18 09:54:34,0.0
2612,-336,19008,-150,201,-166,2024-01-18 09:54:34,0.0
2668,-304,19000,-168,187,-192,2024-01-18 09:54:34,0.0
2700,-236,18968,-176,196,-189,2024-01-18 09:54:34,0.0
2692,-344,19072,-160,199,-179,2024-01-18 09:54:34,0.0
2716,-228,18932,-187,175,-206,2024-01-18 09:54:34,0.0
2628,-264,18972,-183,179,-198,2024-01-18 09:54:34,0.0
2704,-412,18980,-153,188,-204,2024-01-18 09:54:34,0.0
2736,-300,18940,-152,183,-172,2024-01-18 09:54:34,0.0
2736,-196,19096,-142,191,-177,2024-01-18 09:54:34,0.0
2652,-368,19084,-179,185,-181,2024-01-18 09:54:34,0.0
2768,-344,19052,-173,208,-186,2024-01-18 09:54:34,0.0
2648,-348,18828,-173,204,-163,2024-01-18 09:54:34,0.0
2588,-372,18844,-155,183,-192,2024-01-18 09:54:34,0.0
2768,-272,19032,-160,187,-182,2024-01-18 09:54:34,0.0
2728,-376,18976,-163,205,-207,2024-01-18 09:54:34,0.0
2704,-320,18856,-179,185,-175,2024-01-18 09:54:34,0.0
2740,-336,19040,-143,182,-158,2024-01-18 09:54:34,0.0
2692,-344,18956,-180,193,-189,2024-01-18 09:54:34,0.0
2636,-332,18852,-160,195,-199,2024-01-18 09:54:34,0.0
2640,-284,18988,-196,197,-179,2024-01-18 09:54:34,0.0
2708,-308,18888,-171,203,-157,2024-01-18 09:54:34,0.0
2656,-344,19076,-163,183,-179,2024-01-18 09:54:34,0.0
2636,-352,18904,-165,188,-198,2024-01-18 09:54:34,0.0
2732,-356,18836,-174,200,-178,2024-01-18 09:54:34,0.0
2736,-424,19088,-134,199,-193,2024-01-18 09:54:34,0.0
2652,-288,18964,-159,196,-170,2024-01-18 09:54:34,0.0
2604,-296,18980,-172,202,-171,2024-01-18 09:54:34,0.0
2648,-328,18956,-160,187,-180,2024-01-18 09:54:34,0.0
2688,-344,18968,-152,170,-179,2024-01-18 09:54:34,0.0
2668,-284,19028,-171,170,-177,2024-01-18 09:54:34,0.0
2680,-300,18904,-174,198,-181,2024-01-18 09:54:34,0.0
2744,-312,18944,-155,187,-186,2024-01-18 09:54:34,0.0
2568,-308,18928,-149,188,-178,2024-01-18 09:54:34,0.0
2716,-308,18944,-172,187,-196,2024-01-18 09:54:34,0.0
2728,-272,18736,-158,176,-172,2024-01-18 09:54:34,0.0
2688,-312,18920,-160,190,-182,2024-01-18 09:54:34,0.0
2660,-356,19020,-169,183,-181,2024-01-18 09:54:35,0.0
2680,-292,18864,-163,179,-176,2024-01-18 09:54:35,0.0
2708,-356,18888,-156,168,-203,2024-01-18 09:54:35,0.0
2628,-212,19040,-171,169,-186,2024-01-18 09:54:35,0.0
2716,-340,18976,-154,200,-176,2024-01-18 09:54:35,0.0
2588,-308,18944,-165,194,-192,2024-01-18 09:54:35,0.0
2616,-244,18936,-178,195,-191,2024-01-18 09:54:35,0.0
2628,-344,19100,-157,215,-173,2024-01-18 09:54:35,0.0
2692,-256,18932,-152,207,-186,2024-01-18 09:54:35,0.0
2580,-280,18944,-167,186,-186,2024-01-18 09:54:35,0.0
2756,-336,18984,-179,190,-184,2024-01-18 09:54:35,0.0
2708,-344,19012,-164,182,-172,2024-01-18 09:54:35,0.0
2700,-312,19004,-156,204,-159,2024-01-18 09:54:35,0.0
2600,-388,18924,-174,224,-180,2024-01-18 09:54:35,0.0
2748,-380,18964,-185,186,-182,2024-01-18 09:54:35,0.0
2588,-316,19088,-170,181,-202,2024-01-18 09:54:35,0.0
2752,-332,18872,-175,208,-178,2024-01-18 09:54:35,0.0
2552,-220,18928,-164,194,-179,2024-01-18 09:54:35,0.0
2652,-364,18932,-174,194,-177,2024-01-18 09:54:35,0.0
2692,-396,19020,-178,188,-169,2024-01-18 09:54:35,0.0
2656,-276,18940,-156,187,-183,2024-01-18 09:54:35,0.0
2612,-436,18908,-190,177,-179,2024-01-18 09:54:35,0.0
2612,-388,18996,-168,200,-195,2024-01-18 09:54:35,0.0
2724,-316,19084,-169,181,-201,2024-01-18 09:54:35,0.0
2600,-324,19040,-168,187,-188,2024-01-18 09:54:35,0.0
2684,-288,18988,-170,192,-185,2024-01-18 09:54:35,0.0
2732,-364,18840,-158,186,-198,2024-01-18 09:54:35,0.0
2648,-320,19116,-171,195,-192,2024-01-18 09:54:35,0.0
2704,-312,18960,-160,212,-177,2024-01-18 09:54:35,0.0
2636,-324,18988,-157,197,-181,2024-01-18 09:54:35,0.0
2664,-276,19020,-167,194,-187,2024-01-18 09:54:35,0.0
2664,-224,18964,-167,192,-187,2024-01-18 09:54:35,0.0
2640,-320,18936,-159,190,-172,2024-01-18 09:54:35,0.0
2676,-316,18952,-150,209,-156,2024-01-18 09:54:35,0.0
2636,-184,18944,-166,200,-173,2024-01-18 09:54:35,0.0
2688,-288,18852,-176,192,-179,2024-01-18 09:54:35,0.0
2680,-288,18960,-155,194,-179,2024-01-18 09:54:35,0.0
2744,-312,18956,-168,204,-192,2024-01-18 09:54:35,0.0
2712,-284,19016,-163,194,-170,2024-01-18 09:54:35,0.0
2692,-280,19000,-148,169,-186,2024-01-18 09:54:35,0.0
2696,-236,18888,-171,203,-186,2024-01-18 09:54:35,0.0
2760,-328,18876,-160,205,-196,2024-01-18 09:54:35,0.0
2668,-308,18852,-176,193,-190,2024-01-18 09:54:35,0.0
2744,-424,19068,-178,172,-173,2024-01-18 09:54:35,0.0
2612,-352,18844,-162,190,-192,2024-01-18 09:54:35,
2640,-368,18960,-156,193,-181,2024-01-18 09:54:35,0.0
2664,-280,19020,-184,185,-178,2024-01-18 09:54:35,0.0
2784,-372,19092,-170,171,-193,2024-01-18 09:54:35,0.0
2652,-304,18952,-168,203,-185,2024-01-18 09:54:35,0.0
2692,-312,18884,-165,198,-188,2024-01-18 09:54:35,0.0
2748,-368,19148,-162,174,-186,2024-01-18 09:54:35,0.0
2584,-364,19112,-165,202,-188,2024-01-18 09:54:35,0.0
2624,-320,19064,-148,200,-182,2024-01-18 09:54:35,0.0
2748,-320,19024,-172,174,-179,2024-01-18 09:54:35,0.0
2696,-312,19028,-140,163,-192,2024-01-18 09:54:35,0.0
2636,-300,18884,-183,177,-193,2024-01-18 09:54:35,0.0
2580,-284,18840,-162,191,-179,2024-01-18 09:54:35,0.0
2644,-248,18996,-161,173,-190,2024-01-18 09:54:35,0.0
2624,-280,19104,-142,192,-198,2024-01-18 09:54:35,0.0
2728,-324,19028,-150,189,-183,2024-01-18 09:54:36,0.0
2652,-340,18948,-156,190,-198,2024-01-18 09:54:36,0.0
2664,-364,19032,-159,186,-191,2024-01-18 09:54:36,0.0
2608,-308,18904,-169,169,-193,2024-01-18 09:54:36,0.0
2656,-336,19072,-177,189,-182,2024-01-18 09:54:36,0.0
2620,-364,19020,-156,198,-180,2024-01-18 09:54:36,0.0
2660,-312,18944,-153,202,-191,2024-01-18 09:54:36,0.0
2748,-348,19028,-154,186,-198,2024-01-18 09:54:36,0.0
2600,-300,18876,-159,196,-187,2024-01-18 09:54:36,0.0
2704,-332,19080,-157,197,-190,2024-01-18 09:54:36,0.0
2756,-284,18888,-149,187,-200,2024-01-18 09:54:36,0.0
2596,-296,19088,-167,186,-194,2024-01-18 09:54:36,0.0
2600,-360,18900,-171,209,-189,2024-01-18 09:54:36,0.0
2628,-332,19120,-170,195,-194,2024-01-18 09:54:36,0.0
2656,-272,19064,-161,197,-176,2024-01-18 09:54:36,0.0
2676,-304,18872,-173,185,-173,2024-01-18 09:54:36,0.0
2612,-348,19036,-160,190,-170,2024-01-18 09:54:36,0.0
2636,-328,18952,-156,199,-201,2024-01-18 09:54:36,0.0
2660,-324,19092,-181,183,-151,2024-01-18 09:54:36,0.0
2704,-324,18904,-161,170,-175,2024-01-18 09:54:36,0.0
2696,-324,18988,-157,189,-159,2024-01-18 09:54:36,0.0
2624,-408,19020,-141,183,-181,2024-01-18 09:54:36,0.0
2640,-260,18952,-144,181,-203,2024-01-18 09:54:36,0.0
2724,-336,18984,-169,178,-192,2024-01-18 09:54:36,0.0
2648,-380,18932,-153,201,-203,2024-01-18 09:54:36,0.0
2668,-360,18940,-157,207,-178,2024-01-18 09:54:36,0.0
2600,-368,18932,-165,197,-207,2024-01-18 09:54:36,0.0
2524,-348,18820,-165,182,-168,2024-01-18 09:54:36,0.0
2716,-300,18912,-163,188,-201,2024-01-18 09:54:36,0.0
2644,-296,19068,-165,157,-154,2024-01-18 09:54:36,0.0
2544,-348,18916,-151,194,-172,2024-01-18 09:54:36,0.0
2516,-340,19064,-161,182,-182,2024-01-18 09:54:36,0.0
2628,-336,18924,-148,192,-169,2024-01-18 09:54:36,0.0
2712,-292,19032,-177,187,-170,2024-01-18 09:54:36,0.0
2576,-320,18836,-155,182,-188,2024-01-18 09:54:36,0.0
2724,-344,19112,-137,178,-180,2024-01-18 09:54:36,0.0
2708,-368,18928,-158,208,-191,2024-01-18 09:54:36,0.0
2664,-312,18968,-156,205,-184,2024-01-18 09:54:36,0.0
2664,-380,18924,-171,201,-184,2024-01-18 09:54:36,0.0
2688,-272,18936,-177,209,-166,2024-01-18 09:54:36,0.0
2672,-268,18960,-146,210,-188,2024-01-18 09:54:36,0.0
2664,-352,18920,-159,184,-191,2024-01-18 09:54:36,0.0
2740,-272,19032,-175,193,-170,2024-01-18 09:54:36,0.0
2724,-348,19032,-156,186,-178,2024-01-18 09:54:36,0.0
2672,-412,18928,-177,188,-165,2024-01-18 09:54:36,0.0
2656,-296,18900,-143,193,-188,2024-01-18 09:54:36,0.0
2716,-292,18968,-174,190,-169,2024-01-18 09:54:36,0.0
2696,-308,19052,-183,192,-190,2024-01-18 09:54:36,0.0
2688,-256,18864,-160,181,-184,2024-01-18 09:54:36,0.0
2684,-276,19008,-172,200,-196,2024-01-18 09:54:36,0.0
2760,-308,18776,-164,177,-175,2024-01-18 09:54:36,0.0
2712,-428,19032,-172,189,-174,2024-01-18 09:54:36,0.0
2732,-292,19004,-167,188,-199,2024-01-18 09:54:36,0.0
2688,-372,18928,-141,175,-179,2024-01-18 09:54:36,0.0
2628,-280,18948,-183,171,-181,2024-01-18 09:54:36,0.0
2632,-348,19052,-178,192,-181,2024-01-18 09:54:36,0.0
2720,-340,19032,-177,209,-190,2024-01-18 09:54:36,0.0
2576,-348,18964,-149,171,-192,2024-01-18 09:54:36,0.0
2644,-272,19048,-151,177,-189,2024-01-18 09:54:36,0.0
2660,-164,19000,-175,199,-184,2024-01-18 09:54:37,0.0
2600,-244,19008,-146,193,-208,2024-01-18 09:54:37,0.0
2692,-376,19008,-173,198,-190,2024-01-18 09:54:37,0.0
2776,-284,19000,-156,190,-165,2024-01-18 09:54:37,0.0
2676,-320,18828,-166,196,-208,2024-01-18 09:54:37,0.0
2716,-344,18900,-196,187,-199,2024-01-18 09:54:37,0.0
2644,-232,19004,-166,179,-157,2024-01-18 09:54:37,0.0
2648,-264,18996,-188,206,-171,2024-01-18 09:54:37,0.0
2660,-344,18996,-158,170,-185,2024-01-18 09:54:37,0.0
2756,-396,19016,-164,176,-186,2024-01-18 09:54:37,0.0
2632,-296,18916,-161,197,-190,2024-01-18 09:54:37,0.0
2632,-304,18868,-136,182,-192,2024-01-18 09:54:37,0.0
2736,-284,19136,-169,177,-175,2024-01-18 09:54:37,0.0
2640,-340,18912,-162,192,-197,2024-01-18 09:54:37,0.0
2664,-384,18936,-152,213,-189,2024-01-18 09:54:37,0.0
2660,-360,19096,-160,182,-187,2024-01-18 09:54:37,0.0
2628,-264,18956,-160,196,-197,2024-01-18 09:54:37,0.0
2572,-252,18920,-164,189,-175,2024-01-18 09:54:37,0.0
2684,-308,18912,-175,187,-199,2024-01-18 09:54:37,0.0
2672,-376,18908,-163,172,-185,2024-01-18 09:54:37,0.0
2616,-300,19028,-151,171,-172,2024-01-18 09:54:37,0.0
2672,-312,18896,-168,184,-192,2024-01-18 09:54:37,0.0
2696,-324,18924,-165,200,-210,2024-01-18 09:54:37,0.0
2688,-352,18964,-161,181,-192,2024-01-18 09:54:37,0.0
2636,-408,19052,-135,212,-176,2024-01-18 09:54:37,0.0
2664,-248,18964,-187,202,-199,2024-01-18 09:54:37,0.0
2720,-300,19008,-166,197,-204,2024-01-18 09:54:37,
2716,-268,18888,-168,186,-178,2024-01-18 09:54:37,0.0
2632,-348,18972,-162,206,-196,2024-01-18 09:54:37,0.0
2768,-320,18932,-158,190,-185,2024-01-18 09:54:37,0.0
2664,-280,18920,-156,193,-184,2024-01-18 09:54:37,0.0
2652,-280,19008,-157,192,-191,2024-01-18 09:54:37,0.0
2628,-340,18892,-177,194,-194,2024-01-18 09:54:37,0.0
2700,-376,18960,-167,206,-191,2024-01-18 09:54:37,0.0
2636,-320,18948,-161,191,-177,2024-01-18 09:54:37,0.0
2620,-312,19080,-177,166,-181,2024-01-18 09:54:37,0.0
2716,-364,19012,-158,199,-189,2024-01-18 09:54:37,0.0
2628,-280,19080,-163,188,-190,2024-01-18 09:54:37,0.0
2708,-296,18860,-158,167,-174,2024-01-18 09:54:37,0.0
2760,-360,18932,-157,172,-183,2024-01-18 09:54:37,0.0
2644,-300,19020,-162,202,-178,2024-01-18 09:54:37,0.0
2528,-252,18992,-157,184,-174,2024-01-18 09:54:37,0.0
2648,-260,18964,-164,204,-190,2024-01-18 09:54:37,0.0
2704,-388,19048,-177,191,-166,2024-01-18 09:54:37,0.0
2756,-304,18912,-197,200,-195,2024-01-18 09:54:37,0.0
2672,-276,19060,-148,182,-174,2024-01-18 09:54:37,0.0
2684,-304,18988,-151,192,-161,2024-01-18 09:54:37,0.0
2708,-272,18960,-188,195,-194,2024-01-18 09:54:37,0.0
2672,-360,18932,-160,197,-186,2024-01-18 09:54:37,0.0
2676,-276,18888,-182,185,-197,2024-01-18 09:54:37,0.0
2568,-316,19032,-142,195,-185,2024-01-18 09:54:37,0.0
2620,-272,19028,-179,173,-172,2024-01-18 09:54:37,0.0
2636,-324,18996,-159,182,-175,2024-01-18 09:54:37,0.0
2660,-364,18960,-165,187,-187,2024-01-18 09:54:37,0.0
2620,-380,19008,-172,194,-202,2024-01-18 09:54:37,0.0
2652,-276,18924,-188,185,-169,2024-01-18 09:54:37,0.0
2684,-332,18940,-146,188,-178,2024-01-18 09:54:37,0.0
2692,-320,18920,-167,184,-184,2024-01-18 09:54:37,0.0
2664,-328,19092,-176,189,-186,2024-01-18 09:54:37,0.0
2628,-244,18976,-158,208,-169,2024-01-18 09:54:38,0.0
2700,-364,18908,-158,199,-187,2024-01-18 09:54:38,0.0
2732,-400,18992,-172,195,-158,2024-01-18 09:54:38,0.0
2656,-352,19148,-163,184,-194,2024-01-18 09:54:38,0.0
2636,-380,18940,-161,175,-164,2024-01-18 09:54:38,0.0
2680,-320,19004,-151,188,-177,2024-01-18 09:54:38,0.0
2760,-356,19032,-191,192,-183,2024-01-18 09:54:38,0.0
2624,-312,19100,-152,187,-177,2024-01-18 09:54:38,0.0
2736,-320,18992,-153,193,-164,2024-01-18 09:54:38,0.0
2720,-304,18916,-145,182,-200,2024-01-18 09:54:38,0.0
2652,-276,18952,-168,206,-161,2024-01-18 09:54:38,0.0
2644,-300,18912,-160,200,-170,2024-01-18 09:54:38,0.0
2676,-388,19128,-171,200,-210,2024-01-18 09:54:38,0.0
2732,-288,18964,-168,186,-167,2024-01-18 09:54:38,0.0
2724,-352,18972,-150,202,-179,2024-01-18 09:54:38,0.0
2728,-264,19084,-183,209,-168,2024-01-18 09:54:38,0.0
2592,-332,18804,-166,200,-181,2024-01-18 09:54:38,0.0
2696,-236,18964,-163,181,-181,2024-01-18 09:54:38,0.0
2668,-296,18932,-173,216,-165,2024-01-18 09:54:38,0.0
2612,-344,19012,-166,183,-168,2024-01-18 09:54:38,0.0
2600,-348,19028,-162,184,-195,2024-01-18 09:54:38,0.0
2748,-292,18964,-164,186,-200,2024-01-18 09:54:38,0.0
2640,-284,18916,-166,207,-196,2024-01-18 09:54:38,0.0
2636,-368,19024,-179,200,-182,2024-01-18 09:54:38,0.0
2724,-268,19000,-133,176,-167,2024-01-18 09:54:38,0.0
2680,-332,18984,-178,185,-184,2024-01-18 09:54:38,0.0
2648,-344,18952,-164,169,-188,2024-01-18 09:54:38,0.0
2728,-332,18968,-168,177,-183,2024-01-18 09:54:38,0.0
2704,-324,19008,-170,182,-174,2024-01-18 09:54:38,0.0
2624,-328,18876,-170,179,-190,2024-01-18 09:54:38,0.0
2760,-300,18912,-174,184,-185,2024-01-18 09:54:38,0.0
2692,-280,19104,-175,182,-162,2024-01-18 09:54:38,0.0
2724,-196,19060,-157,160,-205,2024-01-18 09:54:38,0.0
2620,-284,19020,-168,203,-187,2024-01-18 09:54:38,0.0
2592,-356,18924,-163,201,-189,2024-01-18 09:54:38,0.0
2668,-368,19076,-165,182,-179,2024-01-18 09:54:38,0.0
2708,-304,18976,-160,169,-175,2024-01-18 09:54:38,0.0
2608,-236,18976,-195,202,-168,2024-01-18 09:54:38,0.0
2716,-260,18964,-170,175,-184,2024-01-18 09:54:38,0.0
2704,-252,19024,-184,202,-179,2024-01-18 09:54:38,0.0
2680,-328,18952,-169,200,-196,2024-01-18 09:54:38,0.0
2652,-416,19124,-172,200,-205,2024-01-18 09:54:38,0.0
2744,-340,19000,-177,180,-197,2024-01-18 09:54:38,0.0
2664,-296,18904,-162,182,-200,2024-01-18 09:54:38,0.0
2700,-280,18964,-172,190,-181,2024-01-18 09:54:38,0.0
2704,-396,19040,-186,200,-197,2024-01-18 09:54:38,0.0
2716,-248,18980,-164,209,-170,2024-01-18 09:54:38,0.0
2596,-348,18940,-205,206,-187,2024-01-18 09:54:38,0.0
2636,-368,18848,-173,202,-193,2024-01-18 09:54:38,0.0
2596,-304,18940,-185,190,-167,2024-01-18 09:54:38,0.0
2620,-408,18964,-154,206,-170,2024-01-18 09:54:38,0.0
2644,-328,18868,-158,200,-168,2024-01-18 09:54:38,0.0
2652,-316,18964,-177,193,-194,2024-01-18 09:54:38,0.0
2704,-332,18940,-183,201,-181,2024-01-18 09:54:38,0.0
2676,-264,19032,-147,188,-173,2024-01-18 09:54:38,0.0
2688,-344,18968,-147,201,-180,2024-01-18 09:54:38,0.0
2668,-316,18904,-155,191,-195,2024-01-18 09:54:38,0.0
2660,-280,19036,-174,165,-200,2024-01-18 09:54:38,0.0
2652,-260,19012,-154,201,-181,2024-01-18 09:54:38,0.0
2692,-340,18956,-167,192,-179,2024-01-18 09:54:38,0.0
2700,-284,19048,-167,197,-190,2024-01-18 09:54:39,0.0
2564,-384,18948,-184,203,-193,2024-01-18 09:54:39,0.0
2648,-344,19024,-175,202,-177,2024-01-18 09:54:39,0.0
2732,-276,18948,-162,191,-186,2024-01-18 09:54:39,0.0
2724,-232,19020,-189,189,-211,2024-01-18 09:54:39,0.0
2732,-216,19012,-175,193,-186,2024-01-18 09:54:39,0.0
2636,-376,18976,-174,183,-183,2024-01-18 09:54:39,0.0
2696,-248,18956,-161,195,-179,2024-01-18 09:54:39,
2608,-260,18912,-158,208,-185,2024-01-18 09:54:39,0.0
2612,-348,18904,-170,189,-180,2024-01-18 09:54:39,0.0
2692,-364,19020,-171,199,-204,2024-01-18 09:54:39,0.0
2688,-352,18920,-172,183,-171,2024-01-18 09:54:39,0.0
2604,-320,19060,-178,202,-185,2024-01-18 09:54:39,0.0
2664,-332,19228,-189,196,-178,2024-01-18 09:54:39,0.0
2712,-328,19028,-178,199,-184,2024-01-18 09:54:39,0.0
2768,-304,19064,-171,168,-189,2024-01-18 09:54:39,0.0
2628,-348,18972,-177,185,-175,2024-01-18 09:54:39,0.0
2740,-396,19032,-170,185,-179,2024-01-18 09:54:39,0.0
2776,-228,19004,-175,175,-187,2024-01-18 09:54:39,0.0
2700,-276,19192,-170,184,-192,2024-01-18 09:54:39,0.0
2732,-392,19036,-191,200,-180,2024-01-18 09:54:39,0.0
2708,-248,19024,-168,191,-180,2024-01-18 09:54:39,0.0
2732,-252,18912,-182,201,-185,2024-01-18 09:54:39,0.0
2664,-288,18872,-176,204,-182,2024-01-18 09:54:39,0.0
2660,-300,19048,-148,181,-201,2024-01-18 09:54:39,0.0
2688,-264,18812,-169,183,-175,2024-01-18 09:54:39,0.0
2648,-312,19064,-161,180,-199,2024-01-18 09:54:39,0.0
2784,-224,18996,-157,183,-178,2024-01-18 09:54:39,0.0
2664,-396,18924,-156,179,-181,2024-01-18 09:54:39,0.0
2640,-348,19048,-187,199,-203,2024-01-18 09:54:39,0.0
2632,-280,18884,-192,169,-172,2024-01-18 09:54:39,0.0
2660,-340,19088,-172,195,-205,2024-01-18 09:54:39,0.0
2648,-300,19000,-136,198,-186,2024-01-18 09:54:39,0.0
2588,-312,18912,-175,196,-188,2024-01-18 09:54:39,0.0
2660,-344,19008,-160,202,-173,2024-01-18 09:54:39,0.0
2756,-252,18924,-165,181,-196,2024-01-18 09:54:39,0.0
2620,-368,19000,-180,178,-171,2024-01-18 09:54:39,0.0
2648,-316,18864,-190,184,-162,2024-01-18 09:54:39,0.0
2584,-268,19024,-168,198,-197,2024-01-18 09:54:39,0.0
2668,-384,18924,-138,192,-192,2024-01-18 09:54:39,0.0
2644,-332,19096,-169,199,-187,2024-01-18 09:54:39,0.0
2700,-264,19064,-177,193,-189,2024-01-18 09:54:39,0.0
2644,-340,18952,-172,161,-179,2024-01-18 09:54:39,0.0
2600,-368,19044,-165,175,-182,2024-01-18 09:54:39,0.0
2644,-396,19016,-166,182,-171,2024-01-18 09:54:39,0.0
2652,-284,19128,-159,189,-175,2024-01-18 09:54:39,0.0
2668,-328,18956,-162,193,-193,2024-01-18 09:54:39,0.0
2664,-300,18984,-175,198,-189,2024-01-18 09:54:39,0.0
2668,-240,18920,-160,193,-192,2024-01-18 09:54:39,0.0
2572,-332,19060,-148,200,-192,2024-01-18 09:54:39,0.0
2736,-296,18976,-147,186,-182,2024-01-18 09:54:39,0.0
2692,-316,18924,-169,181,-182,2024-01-18 09:54:39,0.0
2688,-360,19012,-153,196,-196,2024-01-18 09:54:39,0.0
2688,-272,19036,-166,189,-190,2024-01-18 09:54:39,0.0
2588,-348,19056,-142,207,-210,2024-01-18 09:54:39,0.0
2644,-308,18948,-154,168,-197,2024-01-18 09:54:39,0.0
2796,-392,19028,-170,187,-180,2024-01-18 09:54:39,0.0
2644,-404,18872,-157,200,-191,2024-01-18 09:54:39,0.0
2624,-280,19000,-164,213,-182,2024-01-18 09:54:39,0.0
2656,-360,18988,-183,168,-179,2024-01-18 09:54:40,0.0
2684,-320,19160,-205,166,-175,2024-01-18 09:54:40,0.0
2660,-348,19020,-165,201,-178,2024-01-18 09:54:40,0.0
2696,-260,19004,-143,182,-183,2024-01-18 09:54:40,0.0
2712,-376,19008,-152,195,-191,2024-01-18 09:54:40,0.0
2764,-368,18964,-165,203,-171,2024-01-18 09:54:40,0.0
2700,-304,18948,-156,179,-192,2024-01-18 09:54:40,0.0
2764,-376,18988,-173,206,-178,2024-01-18 09:54:40,0.0
2564,-272,18984,-169,159,-190,2024-01-18 09:54:40,0.0
2688,-272,18864,-151,188,-190,2024-01-18 09:54:40,0.0
2748,-292,18920,-153,170,-184,2024-01-18 09:54:40,0.0
2688,-260,19036,-161,182,-188,2024-01-18 09:54:40,0.0
2700,-288,19080,-194,180,-174,2024-01-18 09:54:40,0.0
2652,-256,19388,-151,185,-181,2024-01-18 09:54:40,0.0
2728,-356,18848,-159,204,-173,2024-01-18 09:54:40,0.0
2672,-316,18920,-161,194,-187,2024-01-18 09:54:40,0.0
2604,-336,18992,-177,205,-194,2024-01-18 09:54:40,0.0
2656,-316,18928,-175,189,-179,2024-01-18 09:54:40,0.0
2636,-356,19228,-169,188,-189,2024-01-18 09:54:40,0.0
2664,-244,18784,-125,209,-188,2024-01-18 09:54:40,0.0
2728,-300,19112,-148,194,-180,2024-01-18 09:54:40,0.0
2628,-316,19024,-179,202,-186,2024-01-18 09:54:40,0.0
2756,-332,19104,-161,175,-178,2024-01-18 09:54:40,0.0
2644,-316,18840,-171,182,-177,2024-01-18 09:54:40,0.0
2748,-316,18976,-160,183,-199,2024-01-18 09:54:40,0.0
2584,-408,18936,-185,207,-171,2024-01-18 09:54:40,0.0
2736,-336,19020,-175,207,-179,2024-01-18 09:54:40,0.0
2660,-288,18868,-127,186,-202,2024-01-18 09:54:40,0.0
2620,-292,19084,-157,181,-174,2024-01-18 09:54:40,0.0
2612,-320,18976,-154,181,-188,2024-01-18 09:54:40,0.0
2656,-336,19092,-177,200,-177,2024-01-18 09:54:40,0.0
2688,-260,19084,-165,197,-191,2024-01-18 09:54:40,0.0
2740,-316,18844,-143,190,-187,2024-01-18 09:54:40,0.0
2676,-276,18844,-158,175,-183,2024-01-18 09:54:40,0.0
2636,-268,19028,-168,195,-182,2024-01-18 09:54:40,0.0
2744,-240,18992,-169,182,-198,2024-01-18 09:54:40,0.0
2664,-360,18856,-167,187,-187,2024-01-18 09:54:40,0.0
2632,-244,19124,-170,191,-204,2024-01-18 09:54:40,0.0
2676,-328,18864,-152,192,-197,2024-01-18 09:54:40,0.0
2668,-264,19048,-167,196,-185,2024-01-18 09:54:40,0.0
2732,-312,19096,-157,182,-189,2024-01-18 09:54:40,0.0
2748,-376,18868,-169,215,-204,2024-01-18 09:54:40,0.0
2660,-388,18876,-143,181,-172,2024-01-18 09:54:40,0.0
2672,-312,18960,-149,188,-210,2024-01-18 09:54:40,0.0
2644,-312,19148,-155,196,-174,2024-01-18 09:54:40,0.0
2628,-368,18924,-148,179,-167,2024-01-18 09:54:40,0.0
2748,-284,19176,-160,186,-193,2024-01-18 09:54:40,0.0
2628,-276,18948,-154,190,-196,2024-01-18 09:54:40,0.0
2744,-276,19028,-154,169,-182,2024-01-18 09:54:40,
2728,-396,19040,-174,203,-158,2024-01-18 09:54:40,0.0
2704,-300,18944,-165,196,-186,2024-01-18 09:54:40,0.0
2728,-396,18924,-177,203,-211,2024-01-18 09:54:40,0.0
2648,-244,18960,-165,191,-179,2024-01-18 09:54:40,0.0
2688,-404,19020,-142,175,-180,2024-01-18 09:54:40,0.0
2660,-304,19040,-182,201,-188,2024-01-18 09:54:40,0.0
2728,-284,18920,-134,181,-176,2024-01-18 09:54:40,0.0
2672,-304,19032,-164,204,-197,2024-01-18 09:54:40,0.0
2584,-268,19068,-184,182,-172,2024-01-18 09:54:40,0.0
2604,-300,19024,-169,184,-200,2024-01-18 09:54:40,0.0
2620,-348,19192,-183,183,-203,2024-01-18 09:54:40,0.0
2748,-300,19028,-163,188,-195,2024-01-18 09:54:41,0.0
2704,-340,18960,-184,195,-194,2024-01-18 09:54:41,0.0
2660,-384,19056,-160,172,-193,2024-01-18 09:54:41,0.0
2688,-264,19096,-172,181,-181,2024-01-18 09:54:41,0.0
2644,-356,19056,-160,196,-188,2024-01-18 09:54:41,0.0
2648,-444,19084,-172,207,-177,2024-01-18 09:54:41,0.0
2664,-344,18976,-162,185,-176,2024-01-18 09:54:41,0.0
2644,-236,18960,-171,185,-191,2024-01-18 09:54:41,0.0
2660,-296,18964,-174,200,-167,2024-01-18 09:54:41,0.0
2672,-284,18988,-164,204,-183,2024-01-18 09:54:41,0.0
2632,-328,18948,-152,166,-201,2024-01-18 09:54:41,0.0
2704,-344,18932,-168,189,-195,2024-01-18 09:54:41,0.0
2668,-320,19040,-191,194,-185,2024-01-18 09:54:41,0.0
2636,-412,18988,-177,178,-187,2024-01-18 09:54:41,0.0
2736,-232,18876,-166,210,-174,2024-01-18 09:54:41,0.0
2600,-300,18944,-158,197,-175,2024-01-18 09:54:41,0.0
2740,-256,18888,-169,201,-160,2024-01-18 09:54:41,0.0
2680,-376,18964,-156,188,-166,2024-01-18 09:54:41,0.0
2648,-292,18804,-177,204,-166,2024-01-18 09:54:41,0.0
2656,-328,19068,-142,200,-199,2024-01-18 09:54:41,0.0
2720,-356,18924,-156,190,-179,2024-01-18 09:54:41,0.0
2624,-328,19088,-171,196,-180,2024-01-18 09:54:41,0.0
2676,-368,18888,-163,192,-167,2024-01-18 09:54:41,0.0
2620,-252,19076,-174,196,-179,2024-01-18 09:54:41,0.0
2596,-176,18964,-162,204,-197,2024-01-18 09:54:41,0.0
2668,-284,18884,-160,182,-178,2024-01-18 09:54:41,0.0
2672,-312,19008,-177,190,-187,2024-01-18 09:54:41,0.0
2556,-340,19128,-172,188,-178,2024-01-18 09:54:41,0.0
2672,-304,18888,-155,188,-184,2024-01-18 09:54:41,0.0
2680,-336,18996,-157,195,-184,2024-01-18 09:54:41,0.0
2716,-260,19024,-156,156,-214,2024-01-18 09:54:41,0.0
2640,-356,19084,-134,209,-190,2024-01-18 09:54:41,0.0
2768,-364,19056,-192,190,-170,2024-01-18 09:54:41,0.0
2648,-268,19152,-157,182,-168,2024-01-18 09:54:41,0.0
2664,-308,19012,-158,189,-180,2024-01-18 09:54:41,0.0
2636,-356,19012,-179,188,-175,2024-01-18 09:54:41,0.0
2728,-300,19008,-196,194,-172,2024-01-18 09:54:41,0.0
2668,-256,18856,-179,201,-176,2024-01-18 09:54:41,0.0
2556,-392,19036,-169,193,-186,2024-01-18 09:54:41,0.0
2708,-284,18992,-169,187,-191,2024-01-18 09:54:41,0.0
2668,-256,18988,-180,188,-170,2024-01-18 09:54:41,0.0
2724,-324,18816,-171,199,-172,2024-01-18 09:54:41,0.0
2664,-368,19032,-160,198,-190,2024-01-18 09:54:41,0.0
2608,-276,18908,-148,203,-199,2024-01-18 09:54:41,0.0
2632,-300,18988,-159,190,-177,2024-01-18 09:54:41,0.0
2612,-308,18956,-173,202,-197,2024-01-18 09:54:41,0.0
2632,-312,19016,-162,162,-181,2024-01-18 09:54:41,0.0
2696,-372,18948,-193,181,-180,2024-01-18 09:54:41,0.0
2756,-372,18904,-190,197,-178,2024-01-18 09:54:41,0.0
2704,-252,18812,-188,188,-193,2024-01-18 09:54:41,0.0
2732,-288,18924,-161,175,-183,2024-01-18 09:54:41,0.0
2716,-300,18900,-139,189,-167,2024-01-18 09:54:41,0.0
2716,-232,19056,-142,195,-186,2024-01-18 09:54:41,0.0
2700,-264,18976,-167,172,-172,2024-01-18 09:54:41,0.0
2740,-328,18928,-177,187,-166,2024-01-18 09:54:41,0.0
2676,-272,19048,-183,180,-191,2024-01-18 09:54:41,0.0
2628,-396,18856,-176,193,-180,2024-01-18 09:54:41,0.0
2668,-304,19008,-164,201,-185,2024-01-18 09:54:41,0.0
2584,-316,18900,-172,207,-189,2024-01-18 09:54:41,0.0
2712,-324,19024,-135,182,-196,2024-01-18 09:54:42,0.0
2532,-228,18864,-175,188,-188,2024-01-18 09:54:42,0.0
2776,-240,18932,-153,194,-190,2024-01-18 09:54:42,0.0
2688,-292,19000,-156,212,-169,2024-01-18 09:54:42,0.0
2580,-224,19012,-157,187,-190,2024-01-18 09:54:42,0.0
2568,-360,18860,-168,177,-170,2024-01-18 09:54:42,0.0
2724,-292,18948,-171,179,-173,2024-01-18 09:54:42,0.0
2740,-296,18976,-164,186,-185,2024-01-18 09:54:42,0.0
2624,-440,18968,-169,174,-179,2024-01-18 09:54:42,0.0
2812,-292,18996,-154,184,-192,2024-01-18 09:54:42,0.0
2636,-392,18996,-168,210,-186,2024-01-18 09:54:42,0.0
2604,-284,19064,-147,156,-189,2024-01-18 09:54:42,0.0
2632,-296,18932,-161,187,-174,2024-01-18 09:54:42,0.0
2808,-360,18992,-167,214,-166,2024-01-18 09:54:42,0.0
2616,-348,19112,-184,194,-173,2024-01-18 09:54:42,0.0
2688,-296,18984,-160,203,-169,2024-01-18 09:54:42,0.0
2656,-296,19032,-159,163,-181,2024-01-18 09:54:42,0.0
2688,-360,19020,-164,182,-204,2024-01-18 09:54:42,0.0
2696,-288,19060,-150,198,-167,2024-01-18 09:54:42,0.0
2616,-268,18848,-191,170,-172,2024-01-18 09:54:42,0.0
2648,-384,19088,-162,189,-187,2024-01-18 09:54:42,0.0
2716,-332,18988,-166,196,-174,2024-01-18 09:54:42,0.0
2608,-432,18984,-180,185,-177,2024-01-18 09:54:42,0.0
2620,-336,18980,-175,194,-195,2024-01-18 09:54:42,0.0
2644,-348,18892,-162,185,-187,2024-01-18 09:54:42,0.0
2524,-168,18932,-179,157,-168,2024-01-18 09:54:42,0.0
2748,-252,19152,-164,212,-211,2024-01-18 09:54:42,0.0
2704,-348,18980,-158,199,-170,2024-01-18 09:54:42,0.0
2760,-240,18968,-183,199,-168,2024-01-18 09:54:42,0.0
2644,-356,18932,-178,185,-184,2024-01-18 09:54:42,
2644,-264,18912,-153,202,-199,2024-01-18 09:54:42,0.0
2724,-256,19056,-165,207,-187,2024-01-18 09:54:42,0.0
2588,-332,18876,-181,201,-181,2024-01-18 09:54:42,0.0
2640,-412,18916,-182,200,-189,2024-01-18 09:54:42,0.0
2548,-356,18908,-165,190,-184,2024-01-18 09:54:42,0.0
2684,-344,18980,-162,191,-199,2024-01-18 09:54:42,0.0
2692,-240,18992,-168,193,-186,2024-01-18 09:54:42,0.0
2684,-244,19000,-156,205,-187,2024-01-18 09:54:42,0.0
2620,-352,19056,-186,172,-167,2024-01-18 09:54:42,0.0
2656,-288,18892,-177,198,-195,2024-01-18 09:54:42,0.0
2584,-308,18952,-160,197,-185,2024-01-18 09:54:42,0.0
2652,-332,18936,-176,201,-174,2024-01-18 09:54:42,0.0
2596,-312,18980,-168,206,-196,2024-01-18 09:54:42,0.0
2636,-328,19016,-190,210,-176,2024-01-18 09:54:42,0.0
2664,-304,18876,-169,201,-189,2024-01-18 09:54:42,0.0
2740,-312,18940,-159,177,-184,2024-01-18 09:54:42,0.0
2660,-292,18932,-163,188,-196,2024-01-18 09:54:42,0.0
2592,-408,18968,-161,196,-195,2024-01-18 09:54:42,0.0
2600,-236,18932,-170,175,-170,2024-01-18 09:54:42,0.0
2680,-332,19040,-188,205,-191,2024-01-18 09:54:42,0.0
2604,-308,19072,-179,202,-179,2024-01-18 09:54:42,0.0
2704,-376,19092,-172,183,-178,2024-01-18 09:54:42,0.0
2644,-320,18996,-140,192,-188,2024-01-18 09:54:42,0.0
2628,-296,19076,-176,192,-173,2024-01-18 09:54:42,0.0
2652,-220,19040,-180,175,-175,2024-01-18 09:54:42,0.0
2656,-276,18796,-155,193,-183,2024-01-18 09:54:42,0.0
2756,-284,18964,-158,185,-185,2024-01-18 09:54:42,0.0
2704,-416,19000,-187,175,-191,2024-01-18 09:54:42,0.0
2564,-280,19004,-146,196,-197,2024-01-18 09:54:42,0.0
2588,-256,19032,-171,181,-166,2024-01-18 09:54:42,0.0
2568,-340,18976,-152,191,-183,2024-01-18 09:54:43,0.0
2692,-272,19028,-161,201,-191,2024-01-18 09:54:43,0.0
2672,-416,18944,-175,188,-173,2024-01-18 09:54:43,0.0
2724,-256,19008,-155,196,-193,2024-01-18 09:54:43,0.0
2756,-300,19052,-190,191,-181,2024-01-18 09:54:43,0.0
2632,-284,18948,-158,180,-192,2024-01-18 09:54:43,0.0
2632,-356,18980,-139,183,-206,2024-01-18 09:54:43,0.0
2716,-328,19004,-172,182,-179,2024-01-18 09:54:43,0.0
2656,-396,18928,-176,171,-183,2024-01-18 09:54:43,0.0
2664,-328,18956,-136,181,-169,2024-01-18 09:54:43,0.0
2720,-328,19044,-159,174,-202,2024-01-18 09:54:43,0.0
2596,-324,19072,-183,187,-169,2024-01-18 09:54:43,0.0
2724,-400,19016,-157,169,-179,2024-01-18 09:54:43,0.0
2716,-340,18988,-161,198,-182,2024-01-18 09:54:43,0.0
2724,-388,19004,-151,188,-172,2024-01-18 09:54:43,0.0
2716,-304,19036,-150,184,-165,2024-01-18 09:54:43,0.0
2696,-384,19028,-163,176,-177,2024-01-18 09:54:43,0.0
2652,-268,18936,-168,175,-179,2024-01-18 09:54:43,0.0
2776,-340,19080,-163,183,-188,2024-01-18 09:54:43,0.0
2688,-284,19056,-170,187,-183,2024-01-18 09:54:43,0.0
2656,-364,19020,-151,192,-184,2024-01-18 09:54:43,0.0
2552,-356,18772,-149,182,-173,2024-01-18 09:54:43,0.0
2720,-288,19104,-183,186,-179,2024-01-18 09:54:43,0.0
2656,-308,19064,-193,189,-185,2024-01-18 09:54:43,0.0
2696,-364,18888,-161,164,-171,2024-01-18 09:54:43,0.0
2684,-388,19084,-162,183,-166,2024-01-18 09:54:43,0.0
2748,-252,18900,-158,178,-192,2024-01-18 09:54:43,0.0
2640,-276,18924,-173,183,-184,2024-01-18 09:54:43,0.0
2636,-336,18952,-162,182,-206,2024-01-18 09:54:43,0.0
2664,-268,18920,-174,185,-182,2024-01-18 09:54:43,0.0
2628,-284,18856,-159,174,-190,2024-01-18 09:54:43,0.0
2764,-320,19100,-175,180,-183,2024-01-18 09:54:43,0.0
2684,-316,18996,-155,200,-172,2024-01-18 09:54:43,0.0
2592,-288,18836,-168,184,-194,2024-01-18 09:54:43,0.0
2644,-280,19116,-156,206,-194,2024-01-18 09:54:43,0.0
2784,-268,19048,-150,185,-193,2024-01-18 09:54:43,0.0
2740,-308,19004,-185,177,-175,2024-01-18 09:54:43,0.0
2608,-356,18864,-180,199,-190,2024-01-18 09:54:43,0.0
2552,-288,18932,-140,197,-187,2024-01-18 09:54:43,0.0
2704,-340,18992,-164,206,-182,2024-01-18 09:54:43,0.0
2672,-244,19048,-164,196,-162,2024-01-18 09:54:43,0.0
2764,-360,18924,-179,197,-188,2024-01-18 09:54:43,0.0
2724,-308,18948,-170,174,-170,2024-01-18 09:54:43,0.0
2636,-304,19020,-178,190,-197,2024-01-18 09:54:43,0.0
2688,-200,18868,-167,199,-188,2024-01-18 09:54:43,0.0
2728,-360,18876,-147,199,-186,2024-01-18 09:54:43,0.0
2644,-336,18964,-172,178,-191,2024-01-18 09:54:43,0.0
2680,-280,19020,-172,173,-166,2024-01-18 09:54:43,0.0
2704,-256,19028,-182,169,-204,2024-01-18 09:54:43,0.0
2628,-296,19024,-152,186,-169,2024-01-18 09:54:43,0.0
2688,-384,19044,-146,200,-210,2024-01-18 09:54:43,0.0
2736,-260,18892,-157,189,-181,2024-01-18 09:54:43,0.0
2608,-296,19148,-140,199,-180,2024-01-18 09:54:43,0.0
2568,-228,19044,-177,199,-191,2024-01-18 09:54:43,0.0
2616,-280,19068,-163,184,-198,2024-01-18 09:54:43,0.0
2664,-260,19016,-188,177,-202,2024-01-18 09:54:43,0.0
2704,-260,18972,-155,205,-184,2024-01-18 09:54:43,0.0
2632,-348,18924,-178,199,-182,2024-01-18 09:54:43,0.0
2656,-308,18848,-178,190,-168,2024-01-18 09:54:43,0.0
2640,-348,19008,-152,195,-186,2024-01-18 09:54:44,0.0
2700,-252,18912,-173,195,-174,2024-01-18 09:54:44,0.0
2716,-340,18920,-153,192,-192,2024-01-18 09:54:44,0.0
2740,-292,19100,-182,184,-193,2024-01-18 09:54:44,0.0
2636,-356,18908,-170,178,-196,2024-01-18 09:54:44,0.0
2732,-304,18932,-175,199,-186,2024-01-18 09:54:44,0.0
2524,-324,18800,-172,187,-182,2024-01-18 09:54:44,0.0
2704,-324,18888,-157,184,-202,2024-01-18 09:54:44,0.0
2724,-276,18952,-156,206,-176,2024-01-18 09:54:44,0.0
2776,-324,19032,-176,194,-176,2024-01-18 09:54:44,0.0
2664,-264,18856,-194,193,-217,2024-01-18 09:54:44,
2616,-368,19052,-182,206,-208,2024-01-18 09:54:44,0.0
2652,-364,19040,-168,196,-163,2024-01-18 09:54:44,0.0
2720,-252,18868,-163,179,-196,2024-01-18 09:54:44,0.0
2696,-240,18976,-178,186,-213,2024-01-18 09:54:44,0.0
2648,-308,19036,-179,204,-176,2024-01-18 09:54:44,0.0
2584,-260,18992,-186,202,-182,2024-01-18 09:54:44,0.0
2744,-332,19020,-157,201,-168,2024-01-18 09:54:44,0.0
2620,-384,19008,-172,192,-205,2024-01-18 09:54:44,0.0
2668,-304,19072,-170,191,-181,2024-01-18 09:54:44,0.0
2688,-248,19108,-142,198,-180,2024-01-18 09:54:44,0.0
2604,-180,19016,-178,198,-185,2024-01-18 09:54:44,0.0
2712,-260,19044,-147,183,-182,2024-01-18 09:54:44,0.0
2644,-312,19092,-169,201,-179,2024-01-18 09:54:44,0.0
2588,-372,19112,-181,183,-173,2024-01-18 09:54:44,0.0
2664,-316,19052,-186,183,-170,2024-01-18 09:54:44,0.0
2700,-296,19068,-156,212,-194,2024-01-18 09:54:44,0.0
2604,-244,19072,-178,209,-187,2024-01-18 09:54:44,0.0
2660,-320,19024,-169,177,-180,2024-01-18 09:54:44,0.0
2652,-360,18864,-172,184,-181,2024-01-18 09:54:44,0.0
2592,-220,18892,-149,170,-198,2024-01-18 09:54:44,0.0
2600,-300,19032,-134,189,-151,2024-01-18 09:54:44,0.0
2688,-380,18916,-169,213,-171,2024-01-18 09:54:44,0.0
2608,-272,18912,-176,180,-197,2024-01-18 09:54:44,0.0
2720,-308,18920,-172,204,-173,2024-01-18 09:54:44,0.0
2632,-388,19012,-181,179,-187,2024-01-18 09:54:44,0.0
2644,-252,18952,-156,205,-166,2024-01-18 09:54:44,0.0
2768,-344,18944,-175,180,-196,2024-01-18 09:54:44,0.0
2684,-256,18948,-186,182,-204,2024-01-18 09:54:44,0.0
2740,-328,18984,-168,195,-173,2024-01-18 09:54:44,0.0
2636,-304,18924,-148,211,-190,2024-01-18 09:54:44,0.0
2644,-232,18976,-171,183,-183,2024-01-18 09:54:44,0.0
2540,-352,19124,-174,175,-196,2024-01-18 09:54:44,0.0
2584,-400,18864,-179,215,-171,2024-01-18 09:54:44,0.0
2688,-284,18896,-145,189,-193,2024-01-18 09:54:44,0.0
2688,-260,18984,-156,180,-190,2024-01-18 09:54:44,0.0
2600,-292,18924,-170,181,-188,2024-01-18 09:54:44,0.0
2784,-292,18844,-137,185,-172,2024-01-18 09:54:44,0.0
2632,-268,18944,-164,193,-188,2024-01-18 09:54:44,0.0
2636,-264,19160,-179,200,-185,2024-01-18 09:54:44,0.0
2656,-400,18976,-163,173,-188,2024-01-18 09:54:44,0.0
2672,-268,18880,-149,205,-169,2024-01-18 09:54:44,0.0
2644,-324,19000,-167,183,-180,2024-01-18 09:54:44,0.0
2636,-280,18900,-169,203,-177,2024-01-18 09:54:44,0.0
2624,-324,18796,-160,174,-173,2024-01-18 09:54:44,0.0
2764,-336,18984,-162,200,-204,2024-01-18 09:54:44,0.0
2628,-260,18784,-170,198,-186,2024-01-18 09:54:44,0.0
2700,-284,19036,-150,200,-189,2024-01-18 09:54:44,0.0
2732,-332,18908,-167,169,-191,2024-01-18 09:54:44,0.0
2648,-264,19012,-163,190,-185,2024-01-18 09:54:45,0.0
2692,-292,18832,-148,202,-177,2024-01-18 09:54:45,0.0
2624,-300,18940,-169,215,-185,2024-01-18 09:54:45,0.0
2620,-268,18936,-176,199,-172,2024-01-18 09:54:45,0.0
2632,-332,19044,-165,194,-183,2024-01-18 09:54:45,0.0
2644,-328,19052,-164,209,-179,2024-01-18 09:54:45,0.0
2592,-348,18888,-154,175,-188,2024-01-18 09:54:45,0.0
2684,-260,19152,-185,201,-175,2024-01-18 09:54:45,0.0
2672,-380,19080,-174,198,-178,2024-01-18 09:54:45,0.0
2680,-352,19036,-171,195,-174,2024-01-18 09:54:45,0.0
2628,-284,18984,-153,197,-168,2024-01-18 09:54:45,0.0
2656,-288,19004,-188,205,-199,2024-01-18 09:54:45,0.0
2560,-304,18924,-159,182,-194,2024-01-18 09:54:45,0.0
2548,-284,19008,-162,194,-205,2024-01-18 09:54:45,0.0
2720,-352,19020,-166,158,-163,2024-01-18 09:54:45,0.0
2692,-192,18728,-166,184,-203,2024-01-18 09:54:45,0.0
2680,-284,19060,-173,204,-197,2024-01-18 09:54:45,0.0
2652,-308,19020,-161,196,-184,2024-01-18 09:54:45,0.0
2604,-252,18884,-145,183,-211,2024-01-18 09:54:45,0.0
2780,-284,18884,-168,189,-163,2024-01-18 09:54:45,0.0
2560,-364,18956,-146,165,-184,2024-01-18 09:54:45,0.0
2700,-216,18872,-158,201,-182,2024-01-18 09:54:45,0.0
2668,-308,18976,-159,213,-181,2024-01-18 09:54:45,0.0
2712,-300,19048,-173,174,-180,2024-01-18 09:54:45,0.0
2568,-280,18896,-154,179,-173,2024-01-18 09:54:45,0.0
2792,-292,19116,-176,203,-175,2024-01-18 09:54:45,0.0
2608,-280,19020,-161,204,-182,2024-01-18 09:54:45,0.0
2708,-352,19004,-139,179,-170,2024-01-18 09:54:45,0.0
2644,-400,19012,-169,183,-181,2024-01-18 09:54:45,0.0
2672,-340,19008,-175,193,-176,2024-01-18 09:54:45,0.0
2608,-312,18896,-163,196,-198,2024-01-18 09:54:45,0.0
2640,-328,18924,-155,173,-171,2024-01-18 09:54:45,0.0
2656,-260,18964,-166,187,-181,2024-01-18 09:54:45,0.0
2636,-256,18992,-157,185,-191,2024-01-18 09:54:45,0.0
2668,-348,18988,-170,208,-180,2024-01-18 09:54:45,0.0
2644,-276,18992,-168,174,-190,2024-01-18 09:54:45,0.0
2724,-308,18912,-176,199,-215,2024-01-18 09:54:45,0.0
2700,-336,18880,-175,196,-192,2024-01-18 09:54:45,0.0
2632,-256,18828,-171,173,-170,2024-01-18 09:54:45,0.0
2584,-260,18916,-170,177,-179,2024-01-18 09:54:45,0.0
2636,-228,18956,-156,180,-168,2024-01-18 09:54:45,0.0
2744,-380,18864,-171,188,-187,2024-01-18 09:54:45,0.0
2644,-344,18868,-153,179,-206,2024-01-18 09:54:45,0.0
2716,-356,19008,-168,186,-180,2024-01-18 09:54:45,0.0
2672,-300,18988,-160,196,-173,2024-01-18 09:54:45,0.0
2660,-328,19012,-193,199,-176,2024-01-18 09:54:45,0.0
2604,-288,18976,-174,191,-180,2024-01-18 09:54:45,0.0
2676,-308,18980,-170,202,-191,2024-01-18 09:54:45,0.0
2744,-260,19148,-148,176,-188,2024-01-18 09:54:45,0.0
2816,-316,19044,-185,175,-169,2024-01-18 09:54:45,0.0
2636,-312,18920,-162,202,-162,2024-01-18 09:54:45,0.0
2672,-292,18972,-151,177,-189,2024-01-18 09:54:45,
2680,-352,18888,-166,190,-180,2024-01-18 09:54:45,0.0
2648,-396,19016,-190,183,-176,2024-01-18 09:54:45,0.0
2572,-372,19040,-185,185,-183,2024-01-18 09:54:45,0.0
2636,-384,19064,-154,201,-181,2024-01-18 09:54:45,0.0
2704,-356,19032,-177,203,-196,2024-01-18 09:54:45,0.0
2644,-232,19020,-165,189,-168,2024-01-18 09:54:45,0.0
2672,-312,18884,-146,184,-193,2024-01-18 09:54:45,0.0
2688,-268,19068,-190,196,-178,2024-01-18 09:54:46,0.0
2636,-216,18928,-170,181,-187,2024-01-18 09:54:46,0.0
2676,-296,18876,-166,192,-179,2024-01-18 09:54:46,0.0
2644,-248,18908,-181,185,-175,2024-01-18 09:54:46,0.0
2680,-284,19192,-172,196,-186,2024-01-18 09:54:46,0.0
2688,-316,18916,-171,185,-182,2024-01-18 09:54:46,0.0
2616,-344,19032,-180,185,-188,2024-01-18 09:54:46,0.0
2612,-344,18924,-144,192,-189,2024-01-18 09:54:46,0.0
2700,-224,19076,-175,179,-190,2024-01-18 09:54:46,0.0
2716,-320,18908,-170,198,-172,2024-01-18 09:54:46,0.0
2740,-260,18972,-153,201,-197,2024-01-18 09:54:46,0.0
2692,-296,19060,-140,199,-176,2024-01-18 09:54:46,0.0
2680,-372,18968,-165,186,-195,2024-01-18 09:54:46,0.0
2660,-340,18924,-150,179,-193,2024-01-18 09:54:46,0.0
2672,-264,18900,-191,187,-198,2024-01-18 09:54:46,0.0
2636,-320,18864,-167,209,-192,2024-01-18 09:54:46,0.0
2552,-372,19016,-165,191,-157,2024-01-18 09:54:46,0.0
2668,-256,18920,-166,195,-168,2024-01-18 09:54:46,0.0
2656,-304,19072,-189,188,-192,2024-01-18 09:54:46,0.0
2676,-312,18888,-163,156,-188,2024-01-18 09:54:46,0.0
2620,-340,19052,-167,195,-177,2024-01-18 09:54:46,0.0
2688,-352,18988,-173,202,-166,2024-01-18 09:54:46,0.0
2616,-220,19124,-158,196,-181,2024-01-18 09:54:46,0.0
2668,-308,18964,-150,192,-197,2024-01-18 09:54:46,0.0
2696,-440,18996,-186,209,-192,2024-01-18 09:54:46,0.0
2756,-312,19084,-151,185,-194,2024-01-18 09:54:46,0.0
2760,-352,18924,-166,184,-165,2024-01-18 09:54:46,0.0
2632,-328,18996,-188,180,-188,2024-01-18 09:54:46,0.0
2760,-432,19096,-158,189,-198,2024-01-18 09:54:46,0.0
2652,-272,18852,-138,176,-192,2024-01-18 09:54:46,0.0
2668,-336,18920,-186,193,-191,2024-01-18 09:54:46,0.0
2656,-220,19016,-187,200,-193,2024-01-18 09:54:46,0.0
2720,-340,18968,-194,180,-178,2024-01-18 09:54:46,0.0
2636,-340,18900,-165,191,-180,2024-01-18 09:54:46,0.0
2612,-244,18972,-185,209,-200,2024-01-18 09:54:46,0.0
2688,-264,18972,-173,180,-197,2024-01-18 09:54:46,0.0
2708,-340,18968,-161,182,-201,2024-01-18 09:54:46,0.0
2684,-280,19076,-177,192,-172,2024-01-18 09:54:46,0.0
2664,-348,18964,-175,177,-180,2024-01-18 09:54:46,0.0
2580,-388,19040,-168,207,-180,2024-01-18 09:54:46,0.0
2648,-312,18924,-186,203,-179,2024-01-18 09:54:46,0.0
2732,-336,19020,-178,190,-175,2024-01-18 09:54:46,0.0
2592,-300,18920,-160,197,-190,2024-01-18 09:54:46,0.0
2620,-288,18904,-160,180,-182,2024-01-18 09:54:46,0.0
2568,-300,18944,-166,197,-155,2024-01-18 09:54:46,0.0
2608,-368,19052,-156,166,-191,2024-01-18 09:54:46,0.0
2768,-320,19008,-178,183,-176,2024-01-18 09:54:46,0.0
2776,-340,18848,-177,179,-192,2024-01-18 09:54:46,0.0
2668,-260,18912,-153,202,-202,2024-01-18 09:54:46,0.0
2672,-356,18948,-173,171,-185,2024-01-18 09:54:46,0.0
2700,-384,18920,-164,217,-181,2024-01-18 09:54:46,0.0
2692,-348,19012,-187,217,-193,2024-01-18 09:54:46,0.0
2688,-308,18956,-149,177,-181,2024-01-18 09:54:46,0.0
2684,-376,18916,-168,198,-195,2024-01-18 09:54:46,0.0
2592,-268,19028,-159,191,-191,2024-01-18 09:54:46,0.0
2596,-204,19060,-158,189,-183,2024-01-18 09:54:46,0.0
2732,-384,18952,-180,194,-185,2024-01-18 09:54:46,0.0
2604,-308,19012,-172,210,-172,2024-01-18 09:54:46,0.0
2704,-412,19008,-185,194,-172,2024-01-18 09:54:46,0.0
2684,-308,19048,-180,193,-183,2024-01-18 09:54:46,0.0
2628,-192,18852,-189,209,-192,2024-01-18 09:54:47,0.0
2624,-368,19052,-178,190,-183,2024-01-18 09:54:47,0.0
2664,-216,18956,-147,196,-196,2024-01-18 09:54:47,0.0
2592,-252,18968,-157,189,-199,2024-01-18 09:54:47,0.0
2736,-368,19080,-180,188,-194,2024-01-18 09:54:47,0.0
2624,-268,18968,-184,210,-195,2024-01-18 09:54:47,0.0
2636,-360,19028,-175,195,-173,2024-01-18 09:54:47,0.0
2552,-392,18976,-147,187,-186,2024-01-18 09:54:47,0.0
2624,-340,19000,-158,197,-197,2024-01-18 09:54:47,0.0
2700,-388,18896,-157,190,-179,2024-01-18 09:54:47,0.0
2632,-296,18992,-158,179,-202,2024-01-18 09:54:47,0.0
2688,-200,19016,-166,192,-165,2024-01-18 09:54:47,0.0
2708,-312,18832,-160,194,-182,2024-01-18 09:54:47,0.0
2708,-284,19056,-178,186,-185,2024-01-18 09:54:47,0.0
2640,-240,19124,-161,187,-186,2024-01-18 09:54:47,0.0
2636,-340,18944,-175,177,-173,2024-01-18 09:54:47,0.0
2640,-236,18992,-175,211,-173,2024-01-18 09:54:47,0.0
2628,-352,18884,-163,195,-162,2024-01-18 09:54:47,0.0
2652,-260,18848,-149,164,-198,2024-01-18 09:54:47,0.0
2728,-288,19060,-173,195,-195,2024-01-18 09:54:47,0.0
2652,-248,18980,-165,189,-184,2024-01-18 09:54:47,0.0
2724,-232,19000,-162,177,-171,2024-01-18 09:54:47,0.0
2680,-292,19092,-161,190,-181,2024-01-18 09:54:47,0.0
2632,-312,18928,-174,201,-193,2024-01-18 09:54:47,0.0
2668,-256,19100,-189,192,-189,2024-01-18 09:54:47,0.0
2760,-348,19104,-155,198,-167,2024-01-18 09:54:47,0.0
2752,-328,19012,-161,193,-175,2024-01-18 09:54:47,0.0
2644,-396,18880,-154,206,-198,2024-01-18 09:54:47,0.0
2676,-416,18912,-163,206,-186,2024-01-18 09:54:47,0.0
2624,-252,19052,-153,184,-186,2024-01-18 09:54:47,0.0
2704,-296,18944,-176,190,-189,2024-01-18 09:54:47,0.0
2656,-368,18932,-162,202,-180,2024-01-18 09:54:47,0.0
2616,-380,18936,-188,171,-176,2024-01-18 09:54:47,
2648,-328,19052,-162,199,-182,2024-01-18 09:54:47,0.0
2788,-292,18900,-180,185,-191,2024-01-18 09:54:47,0.0
2624,-268,18976,-189,201,-190,2024-01-18 09:54:47,0.0
2704,-356,18972,-166,193,-181,2024-01-18 09:54:47,0.0
2616,-272,18932,-177,205,-189,2024-01-18 09:54:47,0.0
2652,-364,19140,-176,181,-168,2024-01-18 09:54:47,0.0
2636,-360,19020,-156,194,-196,2024-01-18 09:54:47,0.0
2684,-288,18988,-141,184,-160,2024-01-18 09:54:47,0.0
2636,-356,19000,-194,163,-174,2024-01-18 09:54:47,0.0
2568,-264,18908,-154,211,-189,2024-01-18 09:54:47,0.0
2588,-300,18944,-152,203,-179,2024-01-18 09:54:47,0.0
2660,-296,18912,-194,206,-197,2024-01-18 09:54:47,0.0
2680,-296,18944,-175,170,-203,2024-01-18 09:54:47,0.0
2744,-344,19016,-179,192,-185,2024-01-18 09:54:47,0.0
2528,-288,18972,-176,173,-178,2024-01-18 09:54:47,0.0
2740,-296,18984,-152,185,-189,2024-01-18 09:54:47,0.0
2708,-312,19076,-180,190,-189,2024-01-18 09:54:47,0.0
2668,-232,19008,-164,192,-181,2024-01-18 09:54:47,0.0
2592,-252,18976,-175,176,-182,2024-01-18 09:54:47,0.0
2776,-340,19028,-189,209,-183,2024-01-18 09:54:47,0.0
2644,-476,18992,-141,196,-169,2024-01-18 09:54:47,0.0
2600,-304,19004,-171,193,-172,2024-01-18 09:54:47,0.0
2696,-284,19088,-172,183,-186,2024-01-18 09:54:47,0.0
2656,-212,19052,-169,171,-188,2024-01-18 09:54:47,0.0
2656,-324,18908,-151,189,-204,2024-01-18 09:54:47,0.0
2680,-248,18992,-137,181,-186,2024-01-18 09:54:47,0.0
2648,-308,19096,-176,201,-186,2024-01-18 09:54:48,0.0
2724,-280,18992,-162,189,-189,2024-01-18 09:54:48,0.0
2660,-304,18976,-166,191,-178,2024-01-18 09:54:48,0.0
2700,-308,18868,-160,178,-184,2024-01-18 09:54:48,0.0
2732,-236,19052,-165,219,-196,2024-01-18 09:54:48,0.0
2648,-296,19028,-165,206,-178,2024-01-18 09:54:48,0.0
2696,-420,18916,-166,195,-182,2024-01-18 09:54:48,0.0
2668,-304,19052,-179,180,-194,2024-01-18 09:54:48,0.0
2696,-248,19032,-163,200,-186,2024-01-18 09:54:48,0.0
2768,-340,19016,-156,185,-174,2024-01-18 09:54:48,0.0
2584,-316,19044,-163,196,-203,2024-01-18 09:54:48,0.0
2616,-336,19044,-163,210,-195,2024-01-18 09:54:48,0.0
2708,-356,18948,-187,175,-195,2024-01-18 09:54:48,0.0
2636,-308,18932,-174,184,-186,2024-01-18 09:54:48,0.0
2628,-292,19004,-164,159,-168,2024-01-18 09:54:48,0.0
2676,-380,18996,-151,204,-173,2024-01-18 09:54:48,0.0
2684,-276,18884,-143,173,-181,2024-01-18 09:54:48,0.0
2696,-360,18868,-166,182,-202,2024-01-18 09:54:48,0.0
2668,-280,19128,-157,188,-183,2024-01-18 09:54:48,0.0
2628,-296,18900,-165,200,-160,2024-01-18 09:54:48,0.0
2664,-372,19132,-152,183,-188,2024-01-18 09:54:48,0.0
2668,-232,18956,-158,199,-178,2024-01-18 09:54:48,0.0
2660,-252,19080,-159,187,-191,2024-01-18 09:54:48,0.0
2676,-372,18964,-159,187,-183,2024-01-18 09:54:48,0.0
2632,-328,19008,-169,188,-179,2024-01-18 09:54:48,0.0
2612,-332,19016,-183,188,-182,2024-01-18 09:54:48,0.0
2732,-244,18968,-157,190,-182,2024-01-18 09:54:48,0.0
2720,-252,19024,-183,172,-184,2024-01-18 09:54:48,0.0
2660,-264,19000,-175,193,-180,2024-01-18 09:54:48,0.0
2704,-336,18996,-185,192,-175,2024-01-18 09:54:48,0.0
2736,-244,19000,-165,204,-176,2024-01-18 09:54:48,0.0
2600,-316,18988,-133,176,-194,2024-01-18 09:54:48,0.0
2704,-368,18988,-163,182,-182,2024-01-18 09:54:48,0.0
2672,-256,18984,-173,179,-173,2024-01-18 09:54:48,0.0
2648,-348,18956,-156,203,-207,2024-01-18 09:54:48,0.0
2732,-296,19000,-153,192,-179,2024-01-18 09:54:48,0.0
2672,-368,18988,-187,190,-182,2024-01-18 09:54:48,0.0
2656,-348,19044,-177,188,-190,2024-01-18 09:54:48,0.0
2720,-232,19064,-182,194,-168,2024-01-18 09:54:48,0.0
2688,-220,18948,-169,189,-188,2024-01-18 09:54:48,0.0
2680,-208,18924,-176,189,-173,2024-01-18 09:54:48,0.0
2700,-248,19012,-163,176,-186,2024-01-18 09:54:48,0.0
2592,-220,18980,-175,185,-193,2024-01-18 09:54:48,0.0
2584,-308,19104,-145,193,-189,2024-01-18 09:54:48,0.0
2696,-312,19052,-166,181,-179,2024-01-18 09:54:48,0.0
2740,-216,19112,-192,175,-167,2024-01-18 09:54:48,0.0
2616,-232,18960,-166,184,-196,2024-01-18 09:54:48,0.0
2688,-304,19016,-186,208,-202,2024-01-18 09:54:48,0.0
2732,-308,18976,-175,180,-189,2024-01-18 09:54:48,0.0
2640,-328,18936,-173,180,-177,2024-01-18 09:54:48,0.0
2660,-396,18924,-186,193,-194,2024-01-18 09:54:48,0.0
2668,-304,19100,-166,209,-170,2024-01-18 09:54:48,0.0
2692,-312,19100,-159,196,-181,2024-01-18 09:54:48,0.0
2484,-292,18944,-168,197,-192,2024-01-18 09:54:48,0.0
2636,-332,18956,-150,216,-198,2024-01-18 09:54:48,0.0
2600,-292,18876,-158,184,-174,2024-01-18 09:54:48,0.0
2664,-240,18832,-175,176,-171,2024-01-18 09:54:48,0.0
2636,-308,18956,-160,197,-193,2024-01-18 09:54:48,0.0
2648,-396,18968,-139,190,-183,2024-01-18 09:54:48,0.0
2620,-384,19028,-152,178,-182,2024-01-18 09:54:48,0.0
2564,-344,19064,-138,170,-192,2024-01-18 09:54:49,0.0
2744,-292,19008,-153,177,-190,2024-01-18 09:54:49,0.0
2672,-288,19076,-186,177,-184,2024-01-18 09:54:49,0.0
2688,-340,19008,-159,187,-188,2024-01-18 09:54:49,0.0
2572,-236,18900,-158,198,-174,2024-01-18 09:54:49,0.0
2616,-284,18896,-153,214,-173,2024-01-18 09:54:49,0.0
2632,-352,19096,-170,200,-181,2024-01-18 09:54:49,0.0
2720,-296,19056,-150,190,-188,2024-01-18 09:54:49,0.0
2708,-332,19016,-173,174,-199,2024-01-18 09:54:49,0.0
2704,-424,18968,-174,199,-183,2024-01-18 09:54:49,0.0
2732,-352,19192,-176,205,-187,2024-01-18 09:54:49,0.0
2648,-288,19160,-188,193,-204,2024-01-18 09:54:49,0.0
2652,-388,18888,-150,191,-192,2024-01-18 09:54:49,0.0
2700,-316,18888,-162,177,-174,2024-01-18 09:54:49,
2600,-288,18924,-167,196,-175,2024-01-18 09:54:49,0.0
2600,-248,18924,-179,200,-188,2024-01-18 09:54:49,0.0
2804,-280,18832,-159,175,-188,2024-01-18 09:54:49,0.0
2660,-192,18988,-172,210,-203,2024-01-18 09:54:49,0.0
2592,-316,18984,-164,178,-184,2024-01-18 09:54:49,0.0
2744,-256,18932,-179,192,-189,2024-01-18 09:54:49,0.0
2628,-328,19136,-185,197,-197,2024-01-18 09:54:49,0.0
2704,-348,18972,-183,193,-183,2024-01-18 09:54:49,0.0
2652,-256,18976,-146,188,-175,2024-01-18 09:54:49,0.0
2708,-276,19096,-168,191,-197,2024-01-18 09:54:49,0.0
2528,-296,18888,-155,193,-178,2024-01-18 09:54:49,0.0
2664,-340,18968,-169,203,-181,2024-01-18 09:54:49,0.0
2572,-256,18952,-151,212,-177,2024-01-18 09:54:49,0.0
2680,-336,19000,-153,178,-178,2024-01-18 09:54:49,0.0
2696,-380,18872,-170,194,-184,2024-01-18 09:54:49,0.0
2660,-184,18948,-180,211,-172,2024-01-18 09:54:49,0.0
2660,-340,18888,-155,162,-186,2024-01-18 09:54:49,0.0
2724,-348,19056,-177,173,-200,2024-01-18 09:54:49,0.0
2664,-344,18944,-154,179,-173,2024-01-18 09:54:49,0.0
2760,-320,19000,-162,220,-184,2024-01-18 09:54:49,0.0
2704,-360,18972,-170,208,-186,2024-01-18 09:54:49,0.0
2656,-296,18832,-163,190,-205,2024-01-18 09:54:49,0.0
2692,-248,18964,-160,191,-185,2024-01-18 09:54:49,0.0
2732,-328,19052,-171,200,-179,2024-01-18 09:54:49,0.0
2676,-304,19040,-170,187,-174,2024-01-18 09:54:49,0.0
2696,-444,19024,-161,205,-184,2024-01-18 09:54:49,0.0
2660,-312,18840,-155,200,-198,2024-01-18 09:54:49,0.0
2664,-308,19012,-142,184,-199,2024-01-18 09:54:49,0.0
2608,-312,18980,-167,190,-173,2024-01-18 09:54:49,0.0
2732,-312,18936,-158,175,-179,2024-01-18 09:54:49,0.0
2644,-284,19016,-171,178,-191,2024-01-18 09:54:49,0.0
2604,-356,18960,-202,190,-192,2024-01-18 09:54:49,0.0
2628,-372,18892,-195,189,-174,2024-01-18 09:54:49,0.0
2612,-340,18956,-185,189,-193,2024-01-18 09:54:49,0.0
2648,-340,19008,-163,172,-193,2024-01-18 09:54:49,0.0
2716,-368,18924,-181,191,-194,2024-01-18 09:54:49,0.0
2684,-264,18960,-158,204,-171,2024-01-18 09:54:49,0.0
2608,-268,18884,-161,188,-177,2024-01-18 09:54:49,0.0
2652,-368,19004,-184,189,-184,2024-01-18 09:54:49,0.0
2644,-336,18992,-161,196,-194,2024-01-18 09:54:49,0.0
2608,-248,19004,-183,177,-187,2024-01-18 09:54:49,0.0
2760,-276,18904,-177,206,-178,2024-01-18 09:54:49,0.0
2636,-292,19036,-156,191,-191,2024-01-18 09:54:49,0.0
2624,-272,19040,-172,189,-191,2024-01-18 09:54:49,0.0
2692,-372,18868,-175,179,-177,2024-01-18 09:54:49,0.0
2636,-360,18936,-161,205,-182,2024-01-18 09:54:49,0.0
2680,-284,18992,-177,181,-168,2024-01-18 09:54:50,0.0
2672,-236,18984,-148,219,-197,2024-01-18 09:54:50,0.0
2712,-316,18872,-154,203,-196,2024-01-18 09:54:50,0.0
2608,-312,19008,-152,213,-182,2024-01-18 09:54:50,0.0
2672,-244,18992,-160,192,-177,2024-01-18 09:54:50,0.0
2660,-320,18892,-172,204,-188,2024-01-18 09:54:50,0.0
2672,-316,19076,-162,202,-196,2024-01-18 09:54:50,0.0
2712,-280,19060,-157,190,-183,2024-01-18 09:54:50,0.0
2584,-364,19052,-170,200,-190,2024-01-18 09:54:50,0.0
2756,-356,19088,-170,199,-176,2024-01-18 09:54:50,0.0
2676,-216,19068,-183,198,-188,2024-01-18 09:54:50,0.0
2560,-296,19020,-168,195,-199,2024-01-18 09:54:50,0.0
2636,-256,18972,-161,207,-153,2024-01-18 09:54:50,0.0
2812,-280,18984,-161,179,-188,2024-01-18 09:54:50,0.0
2636,-292,18952,-160,204,-213,2024-01-18 09:54:50,0.0
2636,-368,18916,-169,172,-192,2024-01-18 09:54:50,0.0
2712,-272,18980,-171,185,-196,2024-01-18 09:54:50,0.0
2632,-368,18956,-145,177,-187,2024-01-18 09:54:50,0.0
2608,-344,18824,-142,197,-184,2024-01-18 09:54:50,0.0
2740,-256,19016,-167,170,-201,2024-01-18 09:54:50,0.0
2664,-240,19032,-166,184,-189,2024-01-18 09:54:50,0.0
2604,-392,18956,-176,196,-173,2024-01-18 09:54:50,0.0
2772,-300,18848,-148,188,-181,2024-01-18 09:54:50,0.0
2736,-312,18908,-156,179,-177,2024-01-18 09:54:50,0.0
2696,-188,19144,-150,191,-170,2024-01-18 09:54:50,0.0
2612,-300,18944,-173,197,-180,2024-01-18 09:54:50,0.0
2716,-356,18960,-157,173,-185,2024-01-18 09:54:50,0.0
2724,-280,18888,-150,199,-187,2024-01-18 09:54:50,0.0
2748,-292,19020,-169,184,-200,2024-01-18 09:54:50,0.0
2708,-252,19040,-205,180,-191,2024-01-18 09:54:50,0.0
2612,-344,19068,-148,180,-208,2024-01-18 09:54:50,0.0
2724,-288,18912,-160,194,-185,2024-01-18 09:54:50,0.0
2640,-324,19000,-162,181,-184,2024-01-18 09:54:50,0.0
2640,-364,19084,-163,204,-169,2024-01-18 09:54:50,0.0
2692,-380,19120,-150,186,-193,2024-01-18 09:54:50,0.0
2716,-232,18972,-154,194,-190,2024-01-18 09:54:50,0.0
2684,-272,19116,-189,211,-190,2024-01-18 09:54:50,0.0
2680,-236,18988,-149,199,-166,2024-01-18 09:54:50,0.0
2688,-268,19032,-136,186,-189,2024-01-18 09:54:50,0.0
2620,-276,18912,-172,189,-166,2024-01-18 09:54:50,0.0
2668,-320,18944,-174,200,-165,2024-01-18 09:54:50,0.0
2704,-336,18944,-145,194,-172,2024-01-18 09:54:50,0.0
2696,-244,19096,-161,184,-173,2024-01-18 09:54:50,0.0
2620,-280,18920,-160,207,-184,2024-01-18 09:54:50,0.0
2688,-288,19012,-199,204,-178,2024-01-18 09:54:50,0.0
2740,-296,19028,-175,184,-211,2024-01-18 09:54:50,0.0
2688,-372,19024,-150,172,-194,2024-01-18 09:54:50,0.0
2636,-260,19080,-171,194,-179,2024-01-18 09:54:50,0.0
2752,-292,18972,-167,212,-184,2024-01-18 09:54:50,0.0
2672,-284,18932,-177,182,-197,2024-01-18 09:54:50,0.0
2664,-372,19072,-165,205,-192,2024-01-18 09:54:50,0.0
2668,-260,18808,-168,201,-181,2024-01-18 09:54:50,0.0
2720,-416,18980,-179,208,-190,2024-01-18 09:54:50,0.0
2732,-344,19004,-170,193,-181,2024-01-18 09:54:50,
2676,-284,18980,-161,169,-186,2024-01-18 09:54:50,0.0
2668,-172,18932,-156,177,-172,2024-01-18 09:54:50,0.0
2688,-304,18948,-185,204,-181,2024-01-18 09:54:50,0.0
2688,-376,18952,-171,177,-194,2024-01-18 09:54:50,0.0
2640,-288,18968,-168,179,-183,2024-01-18 09:54:50,0.0
2744,-304,19104,-180,186,-182,2024-01-18 09:54:51,0.0
2696,-312,19072,-164,181,-183,2024-01-18 09:54:51,0.0
2736,-232,18992,-170,175,-187,2024-01-18 09:54:51,0.0
2700,-396,19052,-169,194,-179,2024-01-18 09:54:51,0.0
2688,-344,18944,-166,180,-160,2024-01-18 09:54:51,0.0
2632,-288,18932,-150,196,-175,2024-01-18 09:54:51,0.0
2732,-332,18996,-186,200,-196,2024-01-18 09:54:51,0.0
2608,-360,19016,-160,196,-163,2024-01-18 09:54:51,0.0
2708,-304,18948,-161,171,-188,2024-01-18 09:54:51,0.0
2708,-328,19072,-145,214,-197,2024-01-18 09:54:51,0.0
2720,-268,19024,-155,181,-198,2024-01-18 09:54:51,0.0
2632,-356,18960,-162,193,-193,2024-01-18 09:54:51,0.0
2616,-304,19032,-176,191,-184,2024-01-18 09:54:51,0.0
2676,-400,18928,-171,186,-170,2024-01-18 09:54:51,0.0
2652,-304,18968,-176,195,-175,2024-01-18 09:54:51,0.0
2672,-376,19056,-178,188,-200,2024-01-18 09:54:51,0.0
2640,-188,19024,-151,201,-192,2024-01-18 09:54:51,0.0
2632,-284,18956,-180,178,-194,2024-01-18 09:54:51,0.0
2724,-288,18988,-154,212,-182,2024-01-18 09:54:51,0.0
2620,-352,18876,-192,191,-195,2024-01-18 09:54:51,0.0
2568,-304,18928,-164,206,-180,2024-01-18 09:54:51,0.0
2688,-288,18928,-179,182,-177,2024-01-18 09:54:51,0.0
2664,-296,18912,-159,193,-188,2024-01-18 09:54:51,0.0
2672,-344,18924,-165,207,-182,2024-01-18 09:54:51,0.0
2740,-312,18884,-187,200,-188,2024-01-18 09:54:51,0.0
2724,-220,19100,-164,187,-184,2024-01-18 09:54:51,0.0
2756,-292,18932,-172,190,-184,2024-01-18 09:54:51,0.0
2788,-380,19040,-165,184,-164,2024-01-18 09:54:51,0.0
2680,-240,18976,-162,183,-207,2024-01-18 09:54:51,0.0
2672,-388,19036,-177,180,-194,2024-01-18 09:54:51,0.0
2736,-212,18992,-180,194,-187,2024-01-18 09:54:51,0.0
2600,-324,18976,-170,195,-192,2024-01-18 09:54:51,0.0
2584,-284,18844,-168,191,-205,2024-01-18 09:54:51,0.0
2572,-308,19056,-162,192,-180,2024-01-18 09:54:51,0.0
2732,-292,19076,-159,221,-188,2024-01-18 09:54:51,0.0
2680,-352,19116,-196,187,-192,2024-01-18 09:54:51,0.0
2564,-232,19160,-152,181,-179,2024-01-18 09:54:51,0.0
2704,-344,18984,-143,176,-180,2024-01-18 09:54:51,0.0
2712,-312,18868,-193,201,-179,2024-01-18 09:54:51,0.0
2736,-320,18912,-151,200,-200,2024-01-18 09:54:51,0.0
2740,-400,19008,-157,205,-173,2024-01-18 09:54:51,0.0
2580,-360,18964,-162,181,-195,2024-01-18 09:54:51,0.0
2676,-324,19036,-183,189,-172,2024-01-18 09:54:51,0.0
2680,-256,19000,-170,185,-193,2024-01-18 09:54:51,0.0
2684,-268,19080,-191,205,-171,2024-01-18 09:54:51,0.0
2588,-316,19076,-174,193,-188,2024-01-18 09:54:51,0.0
2636,-332,18816,-161,195,-160,2024-01-18 09:54:51,0.0
2712,-372,19032,-160,188,-172,2024-01-18 09:54:51,0.0
2608,-244,19032,-155,160,-189,2024-01-18 09:54:51,0.0
2696,-332,19032,-160,215,-191,2024-01-18 09:54:51,0.0
2628,-292,19116,-179,205,-195,2024-01-18 09:54:51,0.0
2676,-332,18904,-174,192,-187,2024-01-18 09:54:51,0.0
2704,-380,19064,-150,201,-180,2024-01-18 09:54:51,0.0
2672,-356,18948,-168,200,-181,2024-01-18 09:54:51,0.0
2676,-324,18832,-156,185,-192,2024-01-18 09:54:51,0.0
2660,-396,18924,-160,186,-178,2024-01-18 09:54:51,0.0
2684,-260,18856,-184,199,-181,2024-01-18 09:54:51,0.0
2732,-268,18948,-171,194,-172,2024-01-18 09:54:51,0.0
2624,-324,19020,-167,176,-191,2024-01-18 09:54:51,0.0
2728,-272,19096,-156,184,-191,2024-01-18 09:54:51,0.0
2692,-316,19004,-173,189,-198,2024-01-18 09:54:52,0.0
2652,-364,18976,-169,201,-180,2024-01-18 09:54:52,0.0
2728,-344,18720,-161,205,-187,2024-01-18 09:54:52,0.0
2580,-344,18864,-172,200,-185,2024-01-18 09:54:52,0.0
2568,-312,18876,-173,188,-187,2024-01-18 09:54:52,0.0
2644,-304,18932,-177,193,-190,2024-01-18 09:54:52,0.0
2600,-328,18884,-159,178,-190,2024-01-18 09:54:52,0.0
2572,-404,18988,-159,176,-161,2024-01-18 09:54:52,0.0
2688,-396,19076,-154,180,-160,2024-01-18 09:54:52,0.0
2652,-280,19024,-175,193,-210,2024-01-18 09:54:52,0.0
2640,-392,18972,-155,193,-188,2024-01-18 09:54:52,0.0
2636,-272,18920,-194,192,-194,2024-01-18 09:54:52,0.0
2600,-268,18768,-186,182,-175,2024-01-18 09:54:52,0.0
2680,-368,18980,-135,189,-171,2024-01-18 09:54:52,0.0
2720,-320,19188,-158,182,-175,2024-01-18 09:54:52,0.0
2764,-276,19084,-142,181,-196,2024-01-18 09:54:52,0.0
2652,-344,19040,-173,207,-190,2024-01-18 09:54:52,0.0
2672,-340,19060,-163,192,-214,2024-01-18 09:54:52,0.0
2756,-316,18912,-159,179,-189,2024-01-18 09:54:52,0.0
2544,-356,18944,-154,183,-174,2024-01-18 09:54:52,0.0
2716,-252,18832,-191,177,-184,2024-01-18 09:54:52,0.0
2620,-284,18980,-177,193,-175,2024-01-18 09:54:52,0.0
2620,-328,19060,-151,193,-172,2024-01-18 09:54:52,0.0
2656,-380,19096,-172,192,-179,2024-01-18 09:54:52,0.0
2648,-356,18824,-166,188,-187,2024-01-18 09:54:52,0.0
2664,-316,18944,-173,186,-187,2024-01-18 09:54:52,0.0
2656,-296,18940,-185,198,-192,2024-01-18 09:54:52,0.0
2704,-332,18932,-165,189,-194,2024-01-18 09:54:52,0.0
2676,-308,19024,-172,171,-173,2024-01-18 09:54:52,0.0
2608,-404,18880,-128,203,-196,2024-01-18 09:54:52,0.0
2672,-272,19024,-194,184,-184,2024-01-18 09:54:52,0.0
2728,-380,19036,-148,175,-164,2024-01-18 09:54:52,0.0
2576,-304,19004,-155,171,-189,2024-01-18 09:54:52,0.0
2676,-404,19064,-178,204,-170,2024-01-18 09:54:52,0.0
2724,-296,18984,-144,196,-189,2024-01-18 09:54:52,
2716,-244,18872,-163,181,-194,2024-01-18 09:54:52,0.0
2604,-408,18980,-175,180,-188,2024-01-18 09:54:52,0.0
2556,-308,19080,-155,181,-187,2024-01-18 09:54:52,0.0
2680,-284,18888,-149,196,-196,2024-01-18 09:54:52,0.0
2692,-336,18992,-145,181,-178,2024-01-18 09:54:52,0.0
2624,-300,19000,-165,197,-208,2024-01-18 09:54:52,0.0
2716,-308,18852,-168,172,-194,2024-01-18 09:54:52,0.0
2704,-272,18936,-173,193,-179,2024-01-18 09:54:52,0.0
2820,-228,19112,-156,191,-182,2024-01-18 09:54:52,0.0
2672,-424,18924,-176,177,-184,2024-01-18 09:54:52,0.0
2612,-368,19068,-152,177,-175,2024-01-18 09:54:52,0.0
2636,-412,18932,-193,183,-183,2024-01-18 09:54:52,0.0
2668,-272,18904,-157,197,-183,2024-01-18 09:54:52,0.0
2684,-348,18900,-157,212,-174,2024-01-18 09:54:52,0.0
2664,-292,19036,-166,208,-207,2024-01-18 09:54:52,0.0
2652,-324,18920,-164,190,-165,2024-01-18 09:54:52,0.0
2680,-316,18948,-156,189,-189,2024-01-18 09:54:52,0.0
2664,-296,19036,-181,173,-188,2024-01-18 09:54:52,0.0
2724,-320,19108,-155,190,-197,2024-01-18 09:54:52,0.0
2560,-232,19048,-163,192,-190,2024-01-18 09:54:52,0.0
2820,-284,19020,-174,176,-184,2024-01-18 09:54:52,0.0
2700,-264,18864,-162,216,-166,2024-01-18 09:54:52,0.0
2692,-196,18888,-164,170,-173,2024-01-18 09:54:52,0.0
2612,-396,19084,-164,184,-184,2024-01-18 09:54:53,0.0
2740,-220,19076,-162,182,-173,2024-01-18 09:54:53,0.0
2708,-264,19004,-171,189,-196,2024-01-18 09:54:53,0.0
2752,-236,18992,-162,185,-194,2024-01-18 09:54:53,0.0
2652,-400,19048,-151,174,-196,2024-01-18 09:54:53,0.0
2748,-288,18932,-179,176,-177,2024-01-18 09:54:53,0.0
2744,-280,19068,-158,207,-154,2024-01-18 09:54:53,0.0
2596,-312,19032,-162,205,-192,2024-01-18 09:54:53,0.0
2680,-356,19096,-175,192,-178,2024-01-18 09:54:53,0.0
2628,-232,18964,-170,189,-171,2024-01-18 09:54:53,0.0
2644,-304,18988,-155,226,-195,2024-01-18 09:54:53,0.0
2740,-296,18968,-158,199,-190,2024-01-18 09:54:53,0.0
2652,-296,19076,-165,180,-191,2024-01-18 09:54:53,0.0
2584,-392,19068,-168,185,-196,2024-01-18 09:54:53,0.0
2608,-436,18972,-162,183,-172,2024-01-18 09:54:53,0.0
2588,-344,18980,-167,200,-179,2024-01-18 09:54:53,0.0
2640,-224,18944,-161,185,-196,2024-01-18 09:54:53,0.0
2600,-232,18860,-191,186,-172,2024-01-18 09:54:53,0.0
2680,-256,19056,-168,189,-181,2024-01-18 09:54:53,0.0
2636,-360,19024,-165,193,-180,2024-01-18 09:54:53,0.0
2652,-392,18896,-171,199,-195,2024-01-18 09:54:53,0.0
2652,-296,18972,-166,185,-182,2024-01-18 09:54:53,0.0
2632,-212,19076,-140,186,-197,2024-01-18 09:54:53,0.0
2588,-392,18912,-161,180,-180,2024-01-18 09:54:53,0.0
2660,-352,18924,-187,196,-192,2024-01-18 09:54:53,0.0
2668,-268,18804,-150,187,-189,2024-01-18 09:54:53,0.0
2608,-264,18940,-168,185,-181,2024-01-18 09:54:53,0.0
2704,-352,19016,-159,191,-192,2024-01-18 09:54:53,0.0
2692,-284,18964,-157,198,-187,2024-01-18 09:54:53,0.0
2680,-304,18960,-183,195,-180,2024-01-18 09:54:53,0.0
2716,-348,18916,-177,188,-194,2024-01-18 09:54:53,0.0
2668,-280,18960,-166,201,-199,2024-01-18 09:54:53,0.0
2652,-256,18976,-174,179,-187,2024-01-18 09:54:53,0.0
2676,-336,18996,-163,176,-193,2024-01-18 09:54:53,0.0
2592,-392,19040,-150,189,-170,2024-01-18 09:54:53,0.0
2596,-348,19028,-161,192,-184,2024-01-18 09:54:53,0.0
2696,-352,18920,-167,182,-206,2024-01-18 09:54:53,0.0
2708,-304,18948,-167,213,-156,2024-01-18 09:54:53,0.0
2616,-344,18920,-170,159,-186,2024-01-18 09:54:53,0.0
2672,-392,18988,-166,194,-192,2024-01-18 09:54:53,0.0
2616,-368,18980,-171,193,-181,2024-01-18 09:54:53,0.0
2524,-300,18868,-178,176,-173,2024-01-18 09:54:53,0.0
2704,-288,19020,-144,195,-192,2024-01-18 09:54:53,0.0
2680,-256,19008,-171,204,-181,2024-01-18 09:54:53,0.0
2636,-392,18876,-145,183,-190,2024-01-18 09:54:53,0.0
2728,-272,18972,-143,203,-188,2024-01-18 09:54:53,0.0
2724,-304,18964,-156,189,-163,2024-01-18 09:54:53,0.0
2744,-316,19052,-169,187,-189,2024-01-18 09:54:53,0.0
2672,-368,18976,-180,191,-180,2024-01-18 09:54:53,0.0
2664,-312,19004,-166,178,-183,2024-01-18 09:54:53,0.0
2640,-356,19176,-152,194,-174,2024-01-18 09:54:53,0.0
2712,-248,18924,-171,181,-181,2024-01-18 09:54:53,0.0
2620,-292,19160,-169,177,-183,2024-01-18 09:54:53,0.0
2660,-408,18896,-168,187,-181,2024-01-18 09:54:53,0.0
2692,-296,18856,-155,193,-186,2024-01-18 09:54:53,0.0
2724,-284,18964,-176,198,-175,2024-01-18 09:54:53,0.0
2640,-308,19100,-171,171,-168,2024-01-18 09:54:53,0.0
2656,-284,19004,-145,184,-200,2024-01-18 09:54:53,0.0
2580,-268,18964,-162,204,-190,2024-01-18 09:54:53,0.0
2672,-320,19092,-153,204,-178,2024-01-18 09:54:54,0.0
2716,-356,19020,-169,185,-189,2024-01-18 09:54:54,0.0
2676,-424,18912,-174,208,-178,2024-01-18 09:54:54,0.0
2572,-372,19080,-176,184,-189,2024-01-18 09:54:54,0.0
2648,-288,18792,-151,199,-172,2024-01-18 09:54:54,0.0
2732,-276,18888,-156,194,-184,2024-01-18 09:54:54,0.0
2680,-288,19120,-178,220,-178,2024-01-18 09:54:54,0.0
2724,-232,18916,-155,174,-174,2024-01-18 09:54:54,0.0
2656,-344,19100,-173,189,-174,2024-01-18 09:54:54,0.0
2688,-216,18932,-173,212,-194,2024-01-18 09:54:54,0.0
2612,-376,19004,-160,195,-191,2024-01-18 09:54:54,0.0
2804,-332,19092,-162,194,-171,2024-01-18 09:54:54,0.0
2636,-228,19036,-159,194,-198,2024-01-18 09:54:54,0.0
2736,-264,18828,-169,189,-200,2024-01-18 09:54:54,0.0
2640,-188,18820,-180,177,-204,2024-01-18 09:54:54,0.0
2592,-412,19040,-149,196,-188,2024-01-18 09:54:54,0.0
2584,-332,18944,-195,200,-198,2024-01-18 09:54:54,0.0
2676,-328,18976,-162,188,-193,2024-01-18 09:54:54,
2676,-284,19040,-151,201,-210,2024-01-18 09:54:54,0.0
2700,-324,18924,-188,188,-184,2024-01-18 09:54:54,0.0
2664,-292,19052,-144,169,-186,2024-01-18 09:54:54,0.0
2680,-424,18880,-187,205,-189,2024-01-18 09:54:54,0.0
2644,-256,19024,-178,187,-193,2024-01-18 09:54:54,0.0
2752,-280,19048,-164,206,-183,2024-01-18 09:54:54,0.0
2680,-216,18968,-179,195,-182,2024-01-18 09:54:54,0.0
2660,-288,18996,-176,184,-184,2024-01-18 09:54:54,0.0
2656,-216,18956,-153,203,-178,2024-01-18 09:54:54,0.0
2636,-332,18956,-170,169,-183,2024-01-18 09:54:54,0.0
2676,-244,18944,-152,171,-188,2024-01-18 09:54:54,0.0
2704,-356,18900,-170,198,-194,2024-01-18 09:54:54,0.0
2608,-256,18984,-198,205,-195,2024-01-18 09:54:54,0.0
2696,-216,19124,-180,207,-186,2024-01-18 09:54:54,0.0
2724,-284,18872,-177,170,-183,2024-01-18 09:54:54,0.0
2652,-308,18912,-177,173,-178,2024-01-18 09:54:54,0.0
2640,-280,18956,-154,189,-182,2024-01-18 09:54:54,0.0
2620,-248,18988,-195,193,-192,2024-01-18 09:54:54,0.0
2652,-364,18868,-168,198,-175,2024-01-18 09:54:54,0.0
2728,-428,18932,-139,188,-187,2024-01-18 09:54:54,0.0
2708,-380,18940,-145,201,-173,2024-01-18 09:54:54,0.0
2740,-416,18976,-164,170,-187,2024-01-18 09:54:54,0.0
2700,-316,19020,-165,196,-191,2024-01-18 09:54:54,0.0
2680,-352,18984,-180,164,-188,2024-01-18 09:54:54,0.0
2744,-388,19044,-166,187,-185,2024-01-18 09:54:54,0.0
2632,-356,18996,-178,189,-179,2024-01-18 09:54:54,0.0
2652,-332,18956,-179,208,-202,2024-01-18 09:54:54,0.0
2704,-360,18924,-191,190,-190,2024-01-18 09:54:54,0.0
2620,-364,18908,-157,185,-187,2024-01-18 09:54:54,0.0
2564,-372,19060,-176,192,-180,2024-01-18 09:54:54,0.0
2652,-332,18956,-155,179,-197,2024-01-18 09:54:54,0.0
2724,-268,18928,-145,186,-183,2024-01-18 09:54:54,0.0
2736,-320,18924,-188,190,-204,2024-01-18 09:54:54,0.0
2724,-344,18996,-176,173,-188,2024-01-18 09:54:54,0.0
2580,-304,19048,-176,186,-167,2024-01-18 09:54:54,0.0
2644,-284,18888,-158,201,-197,2024-01-18 09:54:54,0.0
2600,-348,18900,-159,184,-183,2024-01-18 09:54:54,0.0
2676,-300,19048,-190,182,-205,2024-01-18 09:54:54,0.0
2668,-316,18984,-151,208,-183,2024-01-18 09:54:54,0.0
2576,-308,19164,-186,180,-184,2024-01-18 09:54:54,0.0
2664,-228,19048,-173,192,-181,2024-01-18 09:54:54,0.0
2660,-332,18944,-175,171,-202,2024-01-18 09:54:55,0.0
2612,-380,19072,-181,190,-191,2024-01-18 09:54:55,0.0
2704,-308,19040,-155,184,-182,2024-01-18 09:54:55,0.0
2720,-312,18972,-144,180,-183,2024-01-18 09:54:55,0.0
2676,-380,19020,-159,197,-192,2024-01-18 09:54:55,0.0
2648,-340,19024,-164,187,-180,2024-01-18 09:54:55,0.0
2656,-336,18888,-168,188,-176,2024-01-18 09:54:55,0.0
2692,-328,18880,-166,173,-184,2024-01-18 09:54:55,0.0
2660,-340,18980,-170,189,-180,2024-01-18 09:54:55,0.0
2720,-324,18992,-178,207,-179,2024-01-18 09:54:55,0.0
2700,-336,19096,-168,191,-194,2024-01-18 09:54:55,0.0
2692,-236,18956,-171,184,-184,2024-01-18 09:54:55,0.0
2712,-272,18828,-173,189,-203,2024-01-18 09:54:55,0.0
2724,-376,19008,-166,208,-189,2024-01-18 09:54:55,0.0
2704,-368,18864,-148,180,-168,2024-01-18 09:54:55,0.0
2616,-400,19052,-187,188,-174,2024-01-18 09:54:55,0.0
2712,-292,18948,-148,174,-190,2024-01-18 09:54:55,0.0
2632,-280,18956,-160,187,-177,2024-01-18 09:54:55,0.0
2664,-324,19008,-168,181,-176,2024-01-18 09:54:55,0.0
2656,-320,19044,-163,182,-175,2024-01-18 09:54:55,0.0
2636,-316,18900,-159,193,-184,2024-01-18 09:54:55,0.0
2692,-392,18904,-177,213,-179,2024-01-18 09:54:55,0.0
2704,-364,18988,-164,205,-191,2024-01-18 09:54:55,0.0
2632,-336,19012,-146,194,-177,2024-01-18 09:54:55,0.0
2680,-364,18936,-159,209,-178,2024-01-18 09:54:55,0.0
2652,-364,18868,-168,200,-180,2024-01-18 09:54:55,0.0
2608,-348,18992,-157,214,-204,2024-01-18 09:54:55,0.0
2704,-336,18908,-186,202,-177,2024-01-18 09:54:55,0.0
2676,-352,19008,-180,186,-180,2024-01-18 09:54:55,0.0
2532,-220,19052,-169,196,-191,2024-01-18 09:54:55,0.0
2688,-340,18912,-161,185,-184,2024-01-18 09:54:55,0.0
2712,-344,19060,-162,185,-195,2024-01-18 09:54:55,0.0
2644,-244,18988,-155,206,-185,2024-01-18 09:54:55,0.0
2732,-348,19132,-147,201,-179,2024-01-18 09:54:55,0.0
2624,-296,18948,-164,197,-191,2024-01-18 09:54:55,0.0
2644,-292,19016,-164,197,-202,2024-01-18 09:54:55,0.0
2648,-284,18964,-184,179,-189,2024-01-18 09:54:55,0.0
2716,-388,18976,-145,216,-178,2024-01-18 09:54:55,0.0
2680,-364,18908,-185,191,-178,2024-01-18 09:54:55,0.0
2808,-320,19000,-161,187,-176,2024-01-18 09:54:55,0.0
2712,-300,18932,-171,195,-202,2024-01-18 09:54:55,0.0
2688,-280,18988,-180,186,-175,2024-01-18 09:54:55,0.0
2620,-356,19108,-165,191,-187,2024-01-18 09:54:55,0.0
2760,-272,18960,-178,194,-164,2024-01-18 09:54:55,0.0
2652,-384,19008,-172,200,-183,2024-01-18 09:54:55,0.0
2652,-284,18816,-153,181,-201,2024-01-18 09:54:55,0.0
2628,-356,18824,-176,210,-195,2024-01-18 09:54:55,0.0
2668,-312,18816,-155,193,-182,2024-01-18 09:54:55,0.0
2708,-364,18900,-130,181,-182,2024-01-18 09:54:55,0.0
2724,-272,19000,-174,184,-166,2024-01-18 09:54:55,0.0
2696,-320,18944,-149,204,-173,2024-01-18 09:54:55,0.0
2664,-380,18920,-137,167,-193,2024-01-18 09:54:55,0.0
2596,-300,19056,-137,186,-179,2024-01-18 09:54:55,0.0
2632,-260,18856,-178,194,-165,2024-01-18 09:54:55,0.0
2700,-340,18908,-175,194,-173,2024-01-18 09:54:55,0.0
2596,-316,18972,-179,192,-159,2024-01-18 09:54:55,0.0
2740,-312,19132,-156,188,-181,2024-01-18 09:54:55,0.0
2588,-288,18952,-147,204,-168,2024-01-18 09:54:55,0.0
2652,-308,18804,-177,222,-167,2024-01-18 09:54:55,
2640,-268,19044,-169,205,-167,2024-01-18 09:54:56,0.0
2616,-264,19080,-174,189,-182,2024-01-18 09:54:56,0.0
2708,-256,18904,-179,169,-166,2024-01-18 09:54:56,0.0
2700,-348,18916,-163,190,-176,2024-01-18 09:54:56,0.0
2644,-324,18996,-163,189,-183,2024-01-18 09:54:56,0.0
2688,-352,18912,-171,191,-178,2024-01-18 09:54:56,0.0
2608,-284,19036,-158,202,-162,2024-01-18 09:54:56,0.0
2656,-332,19016,-162,195,-195,2024-01-18 09:54:56,0.0
2712,-376,18864,-151,195,-170,2024-01-18 09:54:56,0.0
2664,-280,18912,-161,184,-185,2024-01-18 09:54:56,0.0
2692,-356,18956,-158,179,-175,2024-01-18 09:54:56,0.0
2648,-340,19032,-170,176,-201,2024-01-18 09:54:56,0.0
2676,-384,18944,-164,196,-177,2024-01-18 09:54:56,0.0
2680,-320,19004,-172,177,-189,2024-01-18 09:54:56,0.0
2712,-312,18992,-182,194,-192,2024-01-18 09:54:56,0.0
2700,-324,19044,-151,203,-184,2024-01-18 09:54:56,0.0
2652,-336,19120,-135,200,-170,2024-01-18 09:54:56,0.0
2644,-292,19012,-161,207,-198,2024-01-18 09:54:56,0.0
2768,-276,18916,-149,194,-203,2024-01-18 09:54:56,0.0
2752,-320,18992,-165,199,-179,2024-01-18 09:54:56,0.0
2656,-288,19044,-175,200,-185,2024-01-18 09:54:56,0.0
2636,-364,18912,-162,168,-181,2024-01-18 09:54:56,0.0
2580,-276,19128,-172,186,-179,2024-01-18 09:54:56,0.0
2704,-284,19112,-172,187,-170,2024-01-18 09:54:56,0.0
2648,-384,18932,-164,180,-196,2024-01-18 09:54:56,0.0
2592,-184,19000,-180,176,-185,2024-01-18 09:54:56,0.0
2680,-276,18924,-181,166,-190,2024-01-18 09:54:56,0.0
2784,-244,19084,-178,172,-190,2024-01-18 09:54:56,0.0
2588,-372,18900,-169,203,-175,2024-01-18 09:54:56,0.0
2664,-288,19064,-149,201,-184,2024-01-18 09:54:56,0.0
2604,-300,18980,-140,198,-183,2024-01-18 09:54:56,0.0
2736,-308,18944,-174,196,-175,2024-01-18 09:54:56,0.0
2784,-176,18964,-148,186,-174,2024-01-18 09:54:56,0.0
2668,-248,18936,-171,191,-180,2024-01-18 09:54:56,0.0
2652,-312,18940,-134,196,-169,2024-01-18 09:54:56,0.0
2708,-332,18964,-177,202,-174,2024-01-18 09:54:56,0.0
2692,-344,18932,-151,180,-213,2024-01-18 09:54:56,0.0
2720,-340,18884,-182,193,-163,2024-01-18 09:54:56,0.0
2648,-312,18836,-166,189,-213,2024-01-18 09:54:56,0.0
2652,-300,19072,-182,187,-189,2024-01-18 09:54:56,0.0
2696,-284,19132,-160,197,-189,2024-01-18 09:54:56,0.0
2776,-264,18972,-173,199,-184,2024-01-18 09:54:56,0.0
2668,-256,19160,-183,186,-155,2024-01-18 09:54:56,0.0
2756,-280,18864,-171,183,-206,2024-01-18 09:54:56,0.0
2684,-172,18928,-193,183,-179,2024-01-18 09:54:56,0.0
2640,-300,18956,-163,197,-204,2024-01-18 09:54:56,0.0
2724,-344,18976,-148,181,-201,2024-01-18 09:54:56,0.0
2688,-196,18988,-192,181,-189,2024-01-18 09:54:56,0.0
2668,-300,19088,-181,183,-179,2024-01-18 09:54:56,0.0
2644,-324,18912,-179,198,-166,2024-01-18 09:54:56,0.0
2608,-404,18892,-200,203,-179,2024-01-18 09:54:56,0.0
2716,-284,18928,-198,186,-189,2024-01-18 09:54:56,0.0
2644,-364,19076,-170,205,-180,2024-01-18 09:54:56,0.0
2684,-364,19060,-199,201,-168,2024-01-18 09:54:56,0.0
2716,-324,18976,-153,190,-206,2024-01-18 09:54:56,0.0
2580,-312,18972,-184,197,-181,2024-01-18 09:54:56,0.0
2676,-372,18900,-169,191,-182,2024-01-18 09:54:56,0.0
2692,-312,19048,-160,211,-179,2024-01-18 09:54:57,0.0
2688,-320,18892,-150,169,-189,2024-01-18 09:54:57,0.0
2708,-352,19080,-170,212,-207,2024-01-18 09:54:57,0.0
2672,-284,19032,-157,179,-187,2024-01-18 09:54:57,0.0
2680,-356,19016,-164,191,-181,2024-01-18 09:54:57,0.0
2672,-244,19032,-177,193,-177,2024-01-18 09:54:57,0.0
2704,-368,18924,-176,183,-178,2024-01-18 09:54:57,0.0
2700,-300,18992,-157,183,-180,2024-01-18 09:54:57,0.0
2648,-340,19008,-167,194,-193,2024-01-18 09:54:57,0.0
2684,-320,19052,-172,193,-168,2024-01-18 09:54:57,0.0
2708,-328,18940,-198,183,-165,2024-01-18 09:54:57,0.0
2680,-304,19060,-178,185,-196,2024-01-18 09:54:57,0.0
2664,-336,19016,-194,185,-171,2024-01-18 09:54:57,0.0
2776,-364,19008,-175,190,-194,2024-01-18 09:54:57,0.0
2724,-324,18872,-181,191,-198,2024-01-18 09:54:57,0.0
2628,-352,18936,-190,166,-165,2024-01-18 09:54:57,0.0
2576,-364,19032,-174,195,-163,2024-01-18 09:54:57,0.0
2680,-304,18944,-162,174,-165,2024-01-18 09:54:57,0.0
2644,-332,18952,-157,197,-191,2024-01-18 09:54:57,0.0
2716,-248,19052,-182,213,-191,2024-01-18 09:54:57,0.0
2680,-228,19036,-157,162,-181,2024-01-18 09:54:57,0.0
2688,-380,18968,-148,188,-181,2024-01-18 09:54:57,0.0
2716,-292,18980,-173,206,-176,2024-01-18 09:54:57,0.0
2676,-384,19124,-155,185,-186,2024-01-18 09:54:57,0.0
2568,-388,18932,-176,189,-187,2024-01-18 09:54:57,0.0
2704,-392,18984,-172,180,-165,2024-01-18 09:54:57,0.0
2664,-300,19048,-150,188,-175,2024-01-18 09:54:57,0.0
2672,-264,18876,-151,178,-194,2024-01-18 09:54:57,0.0
2656,-224,18992,-191,188,-191,2024-01-18 09:54:57,0.0
2608,-260,19108,-162,200,-164,2024-01-18 09:54:57,0.0
2612,-272,18932,-180,197,-185,2024-01-18 09:54:57,0.0
2724,-352,19036,-169,184,-172,2024-01-18 09:54:57,0.0
2628,-356,19068,-186,171,-192,2024-01-18 09:54:57,0.0
2640,-340,18948,-175,173,-189,2024-01-18 09:54:57,0.0
2656,-356,18996,-199,184,-199,2024-01-18 09:54:57,0.0
2696,-236,19124,-134,172,-181,2024-01-18 09:54:57,0.0
2592,-392,19056,-151,185,-194,2024-01-18 09:54:57,0.0
2672,-248,18996,-134,185,-167,2024-01-18 09:54:57,0.0
2668,-288,18920,-182,171,-199,2024-01-18 09:54:57,0.0
2636,-320,19052,-179,195,-189,2024-01-18 09:54:57,0.0
2680,-312,19012,-187,174,-184,2024-01-18 09:54:57,0.0
2628,-308,18960,-162,197,-196,2024-01-18 09:54:57,0.0
2716,-308,19012,-148,195,-175,2024-01-18 09:54:57,
2740,-328,18968,-168,186,-183,2024-01-18 09:54:57,0.0
2620,-288,18972,-178,166,-183,2024-01-18 09:54:57,0.0
2740,-356,18988,-159,189,-153,2024-01-18 09:54:57,0.0
2680,-316,19032,-136,186,-190,2024-01-18 09:54:57,0.0
2664,-276,18928,-156,194,-200,2024-01-18 09:54:57,0.0
2644,-296,19012,-161,202,-194,2024-01-18 09:54:57,0.0
2664,-248,18984,-176,203,-191,2024-01-18 09:54:57,0.0
2624,-332,19008,-154,195,-204,2024-01-18 09:54:57,0.0
2636,-404,18984,-164,191,-188,2024-01-18 09:54:57,0.0
2684,-352,19068,-154,203,-193,2024-01-18 09:54:57,0.0
2708,-296,18888,-184,207,-174,2024-01-18 09:54:57,0.0
2524,-292,19028,-167,196,-180,2024-01-18 09:54:57,0.0
2784,-304,18892,-164,182,-186,2024-01-18 09:54:57,0.0
2672,-376,18944,-187,192,-197,2024-01-18 09:54:57,0.0
2584,-316,19028,-177,197,-170,2024-01-18 09:54:57,0.0
2600,-384,18956,-169,190,-188,2024-01-18 09:54:57,0.0
2664,-192,19008,-179,193,-170,2024-01-18 09:54:57,0.0
2596,-336,18932,-146,179,-201,2024-01-18 09:54:57,0.0
2684,-328,18924,-177,177,-197,2024-01-18 09:54:58,0.0
2640,-324,19100,-168,179,-197,2024-01-18 09:54:58,0.0
2656,-236,18860,-183,187,-171,2024-01-18 09:54:58,0.0
2688,-348,18956,-157,180,-186,2024-01-18 09:54:58,0.0
2736,-312,19060,-181,182,-171,2024-01-18 09:54:58,0.0
2676,-392,19004,-174,202,-165,2024-01-18 09:54:58,0.0
2628,-356,18976,-143,188,-169,2024-01-18 09:54:58,0.0
2732,-392,18964,-156,202,-195,2024-01-18 09:54:58,0.0
2636,-344,19052,-172,171,-180,2024-01-18 09:54:58,0.0
2588,-372,19064,-194,203,-182,2024-01-18 09:54:58,0.0
2652,-240,18948,-169,189,-185,2024-01-18 09:54:58,0.0
2652,-312,18892,-179,200,-177,2024-01-18 09:54:58,0.0
2560,-320,19064,-156,191,-187,2024-01-18 09:54:58,0.0
2688,-256,19164,-168,185,-179,2024-01-18 09:54:58,0.0
2668,-312,18968,-166,176,-204,2024-01-18 09:54:58,0.0
2712,-308,19072,-150,189,-175,2024-01-18 09:54:58,0.0
2712,-304,19048,-172,188,-202,2024-01-18 09:54:58,0.0
2632,-252,18948,-141,185,-180,2024-01-18 09:54:58,0.0
2656,-308,18896,-163,192,-173,2024-01-18 09:54:58,0.0
2708,-352,19008,-167,188,-180,2024-01-18 09:54:58,0.0
2640,-288,18996,-168,192,-195,2024-01-18 09:54:58,0.0
2636,-308,18912,-187,186,-188,2024-01-18 09:54:58,0.0
2744,-312,19036,-187,196,-179,2024-01-18 09:54:58,0.0
2684,-368,19012,-170,205,-169,2024-01-18 09:54:58,0.0
2624,-312,19084,-167,203,-180,2024-01-18 09:54:58,0.0
2760,-348,18944,-182,194,-195,2024-01-18 09:54:58,0.0
2672,-236,19028,-162,191,-173,2024-01-18 09:54:58,0.0
2632,-392,18956,-146,201,-197,2024-01-18 09:54:58,0.0
2632,-372,18932,-170,194,-174,2024-01-18 09:54:58,0.0
2712,-280,18856,-170,183,-162,2024-01-18 09:54:58,0.0
2668,-280,18888,-154,193,-181,2024-01-18 09:54:58,0.0
2764,-284,19044,-156,204,-192,2024-01-18 09:54:58,0.0
2684,-340,19004,-161,187,-195,2024-01-18 09:54:58,0.0
2724,-252,19044,-162,203,-180,2024-01-18 09:54:58,0.0
2672,-328,19152,-144,199,-188,2024-01-18 09:54:58,0.0
2664,-228,19008,-179,193,-185,2024-01-18 09:54:58,0.0
2660,-300,19076,-148,187,-206,2024-01-18 09:54:58,0.0
2668,-288,19024,-168,193,-185,2024-01-18 09:54:58,0.0
2748,-300,18948,-159,196,-186,2024-01-18 09:54:58,0.0
2636,-332,19032,-164,192,-182,2024-01-18 09:54:58,0.0
2672,-364,19040,-176,169,-167,2024-01-18 09:54:58,0.0
2644,-356,18944,-184,170,-203,2024-01-18 09:54:58,0.0
2700,-360,19040,-176,183,-181,2024-01-18 09:54:58,0.0
2588,-380,18960,-155,181,-188,2024-01-18 09:54:58,0.0
2616,-324,18920,-161,191,-189,2024-01-18 09:54:58,0.0
2548,-352,18920,-163,209,-186,2024-01-18 09:54:58,0.0
2704,-324,18952,-170,194,-185,2024-01-18 09:54:58,0.0
2736,-252,18904,-168,178,-182,2024-01-18 09:54:58,0.0
2608,-300,18912,-179,186,-178,2024-01-18 09:54:58,0.0
2684,-340,19052,-142,179,-189,2024-01-18 09:54:58,0.0
2620,-236,18888,-197,184,-186,2024-01-18 09:54:58,0.0
2632,-232,18852,-186,196,-202,2024-01-18 09:54:58,0.0
2636,-276,18960,-187,188,-188,2024-01-18 09:54:58,0.0
2716,-332,18896,-175,179,-191,2024-01-18 09:54:58,0.0
2640,-356,19072,-166,178,-190,2024-01-18 09:54:58,0.0
2596,-268,18916,-164,204,-190,2024-01-18 09:54:58,0.0
2636,-328,19076,-161,208,-184,2024-01-18 09:54:58,0.0
2776,-368,18864,-148,196,-193,2024-01-18 09:54:58,0.0
2692,-372,19020,-164,178,-187,2024-01-18 09:54:59,0.0
2748,-324,19036,-167,179,-173,2024-01-18 09:54:59,0.0
2716,-320,18884,-163,194,-173,2024-01-18 09:54:59,0.0
2628,-368,18992,-165,182,-192,2024-01-18 09:54:59,0.0
2636,-280,18888,-164,192,-191,2024-01-18 09:54:59,0.0
2600,-344,19012,-149,188,-200,2024-01-18 09:54:59,0.0
2740,-348,18960,-149,179,-194,2024-01-18 09:54:59,0.0
2708,-344,19096,-186,200,-184,2024-01-18 09:54:59,0.0
2612,-360,19004,-173,202,-192,2024-01-18 09:54:59,0.0
2652,-236,19016,-175,193,-178,2024-01-18 09:54:59,0.0
2672,-344,18952,-140,201,-175,2024-01-18 09:54:59,0.0
2668,-300,18868,-161,186,-178,2024-01-18 09:54:59,0.0
2700,-364,18920,-175,173,-187,2024-01-18 09:54:59,0.0
2740,-336,18908,-148,186,-163,2024-01-18 09:54:59,0.0
2572,-256,18688,-147,207,-176,2024-01-18 09:54:59,0.0
2596,-216,19024,-179,183,-183,2024-01-18 09:54:59,0.0
2612,-236,18976,-158,194,-168,2024-01-18 09:54:59,0.0
2612,-284,19128,-140,192,-179,2024-01-18 09:54:59,0.0
2636,-280,19064,-159,193,-174,2024-01-18 09:54:59,0.0
2716,-252,19132,-176,174,-174,2024-01-18 09:54:59,0.0
2708,-316,19008,-149,201,-180,2024-01-18 09:54:59,0.0
2552,-264,18896,-145,191,-178,2024-01-18 09:54:59,0.0
2676,-396,18952,-160,201,-190,2024-01-18 09:54:59,0.0
2612,-364,19052,-161,193,-167,2024-01-18 09:54:59,
2588,-372,18984,-191,168,-184,2024-01-18 09:54:59,0.0
2740,-380,18900,-171,165,-191,2024-01-18 09:54:59,0.0
2728,-320,18964,-176,192,-173,2024-01-18 09:54:59,0.0
2668,-328,18888,-164,209,-200,2024-01-18 09:54:59,0.0
2676,-396,18880,-163,198,-196,2024-01-18 09:54:59,0.0
2660,-228,18968,-165,219,-180,2024-01-18 09:54:59,0.0
2644,-308,18856,-170,174,-188,2024-01-18 09:54:59,0.0
2652,-308,19076,-157,211,-166,2024-01-18 09:54:59,0.0
2732,-308,18892,-145,188,-181,2024-01-18 09:54:59,0.0
2708,-344,19016,-171,181,-191,2024-01-18 09:54:59,0.0
2640,-276,18912,-158,179,-182,2024-01-18 09:54:59,0.0
2628,-316,18844,-188,189,-170,2024-01-18 09:54:59,0.0
2672,-264,18904,-171,190,-186,2024-01-18 09:54:59,0.0
2584,-232,19036,-155,195,-164,2024-01-18 09:54:59,0.0
2596,-340,18868,-165,180,-186,2024-01-18 09:54:59,0.0
2724,-356,18900,-157,179,-165,2024-01-18 09:54:59,0.0
2624,-316,19068,-156,199,-177,2024-01-18 09:54:59,0.0
2620,-428,18896,-160,198,-175,2024-01-18 09:54:59,0.0
2604,-288,18960,-180,192,-179,2024-01-18 09:54:59,0.0
2676,-272,18972,-151,187,-201,2024-01-18 09:54:59,0.0
2660,-204,18968,-155,180,-201,2024-01-18 09:54:59,0.0
2632,-272,19108,-170,189,-194,2024-01-18 09:54:59,0.0
2632,-324,18812,-164,214,-181,2024-01-18 09:54:59,0.0
2672,-336,19028,-145,197,-187,2024-01-18 09:54:59,0.0
2764,-300,18956,-179,200,-168,2024-01-18 09:54:59,0.0
2612,-376,18804,-159,191,-168,2024-01-18 09:54:59,0.0
2720,-296,18932,-181,197,-192,2024-01-18 09:54:59,0.0
2704,-308,19084,-181,163,-176,2024-01-18 09:54:59,0.0
2732,-268,19132,-166,172,-188,2024-01-18 09:54:59,0.0
2676,-360,19064,-153,192,-169,2024-01-18 09:54:59,0.0
2676,-332,18892,-151,184,-179,2024-01-18 09:54:59,0.0
2748,-344,18960,-165,201,-178,2024-01-18 09:54:59,0.0
2772,-252,18912,-170,181,-186,2024-01-18 09:54:59,0.0
2612,-236,18980,-180,196,-169,2024-01-18 09:54:59,0.0
2604,-352,18852,-138,185,-162,2024-01-18 09:54:59,0.0
2640,-300,18900,-147,189,-186,2024-01-18 09:55:00,0.0
2676,-316,19016,-172,188,-180,2024-01-18 09:55:00,0.0
2588,-368,18932,-170,190,-192,2024-01-18 09:55:00,0.0
2652,-300,18856,-167,179,-171,2024-01-18 09:55:00,0.0
2768,-288,18924,-173,210,-200,2024-01-18 09:55:00,0.0
2644,-256,19104,-159,201,-185,2024-01-18 09:55:00,0.0
2640,-388,19032,-166,182,-170,2024-01-18 09:55:00,0.0
2720,-268,19076,-138,184,-190,2024-01-18 09:55:00,0.0
2800,-288,19064,-167,194,-189,2024-01-18 09:55:00,0.0
2652,-236,18984,-183,190,-186,2024-01-18 09:55:00,0.0
2616,-336,19072,-154,207,-207,2024-01-18 09:55:00,0.0
2676,-324,19068,-158,185,-191,2024-01-18 09:55:00,0.0
2624,-312,18892,-175,181,-184,2024-01-18 09:55:00,0.0
2584,-336,19108,-180,192,-169,2024-01-18 09:55:00,0.0
2644,-184,18880,-164,177,-178,2024-01-18 09:55:00,0.0
2636,-392,19040,-165,177,-172,2024-01-18 09:55:00,0.0
2720,-212,18964,-181,190,-190,2024-01-18 09:55:00,0.0
2680,-292,18980,-160,190,-205,2024-01-18 09:55:00,0.0
2628,-360,19004,-187,191,-194,2024-01-18 09:55:00,0.0
2664,-284,19048,-156,188,-190,2024-01-18 09:55:00,0.0
2676,-320,18984,-182,193,-200,2024-01-18 09:55:00,0.0
2676,-400,18936,-167,206,-168,2024-01-18 09:55:00,0.0
2760,-392,18948,-177,195,-171,2024-01-18 09:55:00,0.0
2680,-316,18968,-164,163,-190,2024-01-18 09:55:00,0.0
2572,-328,19124,-156,182,-160,2024-01-18 09:55:00,0.0
2628,-404,18980,-156,201,-189,2024-01-18 09:55:00,0.0
2688,-296,19028,-139,182,-169,2024-01-18 09:55:00,0.0
2656,-344,19024,-143,191,-192,2024-01-18 09:55:00,0.0
2728,-280,18800,-166,184,-194,2024-01-18 09:55:00,0.0
2600,-228,18988,-176,190,-184,2024-01-18 09:55:00,0.0
2712,-256,19000,-151,189,-164,2024-01-18 09:55:00,0.0
2664,-284,18900,-191,163,-192,2024-01-18 09:55:00,0.0
2704,-244,18972,-147,188,-192,2024-01-18 09:55:00,0.0
2696,-312,18956,-179,193,-184,2024-01-18 09:55:00,0.0
2656,-252,18984,-169,195,-196,2024-01-18 09:55:00,0.0
2664,-312,19076,-169,215,-185,2024-01-18 09:55:00,0.0
2768,-344,18832,-162,184,-179,2024-01-18 09:55:00,0.0
2712,-360,18952,-187,198,-185,2024-01-18 09:55:00,0.0
2696,-288,18872,-170,202,-171,2024-01-18 09:55:00,0.0
2716,-380,18972,-177,190,-199,2024-01-18 09:55:00,0.0
2532,-376,18924,-161,186,-175,2024-01-18 09:55:00,0.0
2656,-324,18944,-161,190,-201,2024-01-18 09:55:00,0.0
2716,-304,19044,-160,193,-179,2024-01-18 09:55:00,0.0
2628,-328,19028,-166,181,-191,2024-01-18 09:55:00,0.0
2616,-308,18900,-166,201,-154,2024-01-18 09:55:00,0.0
2572,-252,18932,-159,199,-183,2024-01-18 09:55:00,0.0
2592,-368,18996,-166,183,-182,2024-01-18 09:55:00,0.0
2724,-396,19052,-179,179,-185,2024-01-18 09:55:00,0.0
2704,-304,19068,-172,184,-204,2024-01-18 09:55:00,0.0
2560,-320,19064,-170,177,-199,2024-01-18 09:55:00,0.0
2592,-400,18836,-158,206,-174,2024-01-18 09:55:00,0.0
2672,-304,18948,-171,182,-190,2024-01-18 09:55:00,0.0
2744,-324,18880,-162,175,-182,2024-01-18 09:55:00,0.0
2660,-292,19028,-161,188,-175,2024-01-18 09:55:00,0.0
2700,-332,18912,-161,196,-184,2024-01-18 09:55:00,0.0
2644,-280,18976,-142,185,-177,2024-01-18 09:55:00,0.0
2608,-272,18980,-167,208,-183,2024-01-18 09:55:00,0.0
2688,-300,19020,-165,183,-162,2024-01-18 09:55:00,0.0
2684,-324,18880,-186,171,-177,2024-01-18 09:55:00,0.0
2712,-252,19112,-158,194,-166,2024-01-18 09:55:01,0.0
2636,-328,18952,-164,192,-183,2024-01-18 09:55:01,0.0
2648,-364,18940,-147,193,-187,2024-01-18 09:55:01,0.0
2540,-364,19176,-177,195,-174,2024-01-18 09:55:01,0.0
2636,-256,18956,-173,188,-168,2024-01-18 09:55:01,0.0
2744,-444,18932,-185,192,-185,2024-01-18 09:55:01,
2732,-260,18856,-148,209,-173,2024-01-18 09:55:01,0.0
2656,-280,19048,-178,175,-194,2024-01-18 09:55:01,0.0
2712,-372,18952,-173,198,-196,2024-01-18 09:55:01,0.0
2652,-304,18944,-155,196,-201,2024-01-18 09:55:01,0.0
2656,-280,18900,-174,186,-201,2024-01-18 09:55:01,0.0
2780,-292,18948,-170,182,-199,2024-01-18 09:55:01,0.0
2704,-320,19088,-158,201,-201,2024-01-18 09:55:01,0.0
2700,-344,19060,-153,181,-182,2024-01-18 09:55:01,0.0
2672,-216,19000,-187,197,-177,2024-01-18 09:55:01,0.0
2692,-368,19020,-166,198,-177,2024-01-18 09:55:01,0.0
2764,-412,19060,-154,201,-192,2024-01-18 09:55:01,0.0
2620,-384,18996,-181,190,-184,2024-01-18 09:55:01,0.0
2680,-312,19052,-193,174,-181,2024-01-18 09:55:01,0.0
2600,-336,18988,-156,190,-174,2024-01-18 09:55:01,0.0
2628,-240,19028,-173,196,-177,2024-01-18 09:55:01,0.0
2648,-300,19104,-165,176,-191,2024-01-18 09:55:01,0.0
2660,-272,18920,-167,200,-197,2024-01-18 09:55:01,0.0
2608,-252,18852,-146,206,-189,2024-01-18 09:55:01,0.0
2688,-312,19000,-147,189,-192,2024-01-18 09:55:01,0.0
2652,-248,19084,-149,193,-179,2024-01-18 09:55:01,0.0
2636,-288,18888,-160,183,-194,2024-01-18 09:55:01,0.0
