acceleration_x,acceleration_y,acceleration_z,gyroscope_x,gyroscope_y,gyroscope_z,timestamp,label
2744,-324,18924,-175,195,-176,2024-01-18 09:43:00,0.0
2812,-360,18956,-182,176,-186,2024-01-18 09:43:00,0.0
2664,-252,19016,-161,206,-190,2024-01-18 09:43:00,0.0
2840,-264,18984,-165,187,-188,2024-01-18 09:43:00,0.0
2752,-336,19116,-169,186,-197,2024-01-18 09:43:00,0.0
2720,-236,18936,-163,195,-180,2024-01-18 09:43:01,0.0
2768,-320,18932,-181,196,-184,2024-01-18 09:43:01,0.0
2672,-320,18940,-174,196,-187,2024-01-18 09:43:01,0.0
2768,-300,19012,-172,158,-207,2024-01-18 09:43:01,0.0
2644,-236,18872,-180,190,-174,2024-01-18 09:43:01,0.0
2792,-164,19020,-169,192,-178,2024-01-18 09:43:01,0.0
2644,-252,19056,-174,202,-190,2024-01-18 09:43:01,0.0
2676,-308,18992,-156,196,-176,2024-01-18 09:43:01,0.0
2820,-300,19016,-157,180,-180,2024-01-18 09:43:01,0.0
2792,-260,19036,-172,160,-153,2024-01-18 09:43:01,0.0
2720,-228,18820,-172,197,-177,2024-01-18 09:43:01,0.0
2812,-392,18976,-161,178,-187,2024-01-18 09:43:01,0.0
2732,-308,18996,-160,202,-197,2024-01-18 09:43:01,0.0
2788,-180,18860,-162,181,-173,2024-01-18 09:43:01,0.0
2724,-320,18968,-166,187,-157,2024-01-18 09:43:01,0.0
2688,-248,18908,-156,174,-187,2024-01-18 09:43:01,0.0
2796,-192,19000,-168,199,-165,2024-01-18 09:43:01,0.0
2816,-248,18928,-176,199,-179,2024-01-18 09:43:01,0.0
2728,-264,18956,-183,180,-185,2024-01-18 09:43:01,0.0
2700,-316,18976,-155,196,-195,2024-01-18 09:43:01,0.0
2800,-288,18924,-162,170,-187,2024-01-18 09:43:01,0.0
2680,-360,18904,-164,182,-183,2024-01-18 09:43:01,0.0
2708,-300,18932,-150,187,-183,2024-01-18 09:43:01,0.0
2784,-328,18896,-169,195,-200,2024-01-18 09:43:01,0.0
2740,-332,19084,-163,189,-174,2024-01-18 09:43:01,0.0
2716,-248,18852,-148,179,-174,2024-01-18 09:43:01,0.0
2808,-332,18888,-166,204,-198,2024-01-18 09:43:01,0.0
2784,-244,18884,-174,178,-186,2024-01-18 09:43:01,0.0
2760,-292,18868,-143,179,-176,2024-01-18 09:43:01,0.0
2620,-280,18940,-158,193,-164,2024-01-18 09:43:01,0.0
2720,-212,18920,-164,192,-179,2024-01-18 09:43:01,0.0
2732,-228,18928,-173,205,-197,2024-01-18 09:43:01,0.0
2824,-180,19000,-159,194,-181,2024-01-18 09:43:01,0.0
2628,-296,19032,-175,170,-183,2024-01-18 09:43:01,0.0
2792,-264,18956,-160,200,-196,2024-01-18 09:43:01,0.0
2780,-256,19016,-193,227,-189,2024-01-18 09:43:01,0.0
2688,-316,18956,-174,185,-180,2024-01-18 09:43:01,0.0
2780,-248,18972,-171,207,-180,2024-01-18 09:43:01,0.0
2808,-260,18988,-181,182,-182,2024-01-18 09:43:01,0.0
2668,-248,18836,-165,195,-183,2024-01-18 09:43:01,0.0
2724,-340,19064,-145,191,-189,2024-01-18 09:43:01,0.0
2752,-316,18988,-167,195,-177,2024-01-18 09:43:01,0.0
2708,-268,19004,-154,221,-159,2024-01-18 09:43:01,0.0
2780,-304,19076,-169,182,-198,2024-01-18 09:43:01,0.0
2780,-308,19052,-158,200,-186,2024-01-18 09:43:01,0.0
2740,-228,18964,-183,186,-185,2024-01-18 09:43:01,0.0
2808,-296,19008,-169,208,-186,2024-01-18 09:43:01,0.0
2744,-228,19096,-160,183,-183,2024-01-18 09:43:01,0.0
2772,-332,18912,-178,187,-184,2024-01-18 09:43:01,0.0
2712,-248,18928,-181,191,-189,2024-01-18 09:43:01,0.0
2776,-320,18884,-140,178,-176,2024-01-18 09:43:01,0.0
2756,-248,18988,-172,180,-185,2024-01-18 09:43:01,0.0
2752,-304,18980,-170,213,-167,2024-01-18 09:43:01,0.0
2820,-264,18976,-160,182,-191,2024-01-18 09:43:01,0.0
2800,-340,18928,-186,172,-166,2024-01-18 09:43:01,0.0
2804,-320,19008,-153,188,-186,2024-01-18 09:43:01,0.0
2772,-284,18908,-150,188,-193,2024-01-18 09:43:01,0.0
2832,-256,18972,-181,200,-180,2024-01-18 09:43:01,0.0
2776,-248,19080,-150,199,-188,2024-01-18 09:43:01,0.0
2820,-232,18964,-164,195,-168,2024-01-18 09:43:01,0.0
2776,-220,18836,-146,198,-169,2024-01-18 09:43:02,0.0
2728,-328,18944,-152,198,-183,2024-01-18 09:43:02,0.0
2704,-232,18880,-190,199,-190,2024-01-18 09:43:02,0.0
2756,-268,19132,-166,186,-172,2024-01-18 09:43:02,0.0
2768,-248,18992,-161,195,-174,2024-01-18 09:43:02,0.0
2772,-256,18972,-191,207,-184,2024-01-18 09:43:02,0.0
2724,-256,18984,-186,206,-187,2024-01-18 09:43:02,0.0
2816,-332,18988,-176,210,-185,2024-01-18 09:43:02,0.0
2756,-228,18896,-171,189,-180,2024-01-18 09:43:02,0.0
2764,-268,18944,-176,198,-195,2024-01-18 09:43:02,0.0
2780,-204,18952,-170,174,-177,2024-01-18 09:43:02,0.0
2772,-308,19060,-166,195,-184,2024-01-18 09:43:02,0.0
2636,-196,19012,-184,189,-186,2024-01-18 09:43:02,0.0
2856,-280,18976,-162,206,-179,2024-01-18 09:43:02,0.0
2744,-296,19020,-161,188,-179,2024-01-18 09:43:02,0.0
2688,-228,19028,-176,188,-189,2024-01-18 09:43:02,0.0
2812,-336,18988,-156,192,-175,2024-01-18 09:43:02,0.0
2748,-304,18908,-152,205,-149,2024-01-18 09:43:02,0.0
2740,-272,18912,-182,190,-182,2024-01-18 09:43:02,0.0
2744,-148,18856,-169,164,-193,2024-01-18 09:43:02,0.0
2764,-244,19032,-156,208,-207,2024-01-18 09:43:02,0.0
2704,-216,19056,-183,182,-192,2024-01-18 09:43:02,0.0
2780,-288,18824,-146,201,-185,2024-01-18 09:43:02,0.0
2724,-312,18996,-199,185,-161,2024-01-18 09:43:02,0.0
2756,-260,19032,-177,201,-190,2024-01-18 09:43:02,0.0
2680,-284,19020,-151,173,-195,2024-01-18 09:43:02,0.0
2752,-356,19084,-170,186,-192,2024-01-18 09:43:02,0.0
2712,-228,19036,-189,189,-198,2024-01-18 09:43:02,0.0
2728,-340,18932,-185,186,-187,2024-01-18 09:43:02,0.0
2828,-292,19032,-196,207,-184,2024-01-18 09:43:02,0.0
2708,-288,19076,-141,190,-190,2024-01-18 09:43:02,0.0
2656,-316,18920,-159,176,-181,2024-01-18 09:43:02,0.0
2800,-272,18904,-161,199,-192,2024-01-18 09:43:02,0.0
2768,-248,19016,-160,191,-187,2024-01-18 09:43:02,0.0
2748,-252,19060,-181,198,-192,2024-01-18 09:43:02,
2732,-228,18972,-156,202,-177,2024-01-18 09:43:02,0.0
2772,-284,18948,-188,186,-173,2024-01-18 09:43:02,0.0
2800,-272,18932,-159,183,-187,2024-01-18 09:43:02,0.0
2756,-352,18912,-183,182,-188,2024-01-18 09:43:02,0.0
2688,-320,18792,-128,177,-163,2024-01-18 09:43:02,0.0
2776,-280,19016,-161,161,-200,2024-01-18 09:43:02,0.0
2664,-324,18924,-184,203,-197,2024-01-18 09:43:02,0.0
2724,-212,18856,-152,203,-184,2024-01-18 09:43:02,0.0
2896,-288,19068,-158,181,-182,2024-01-18 09:43:02,0.0
2696,-328,18980,-158,171,-207,2024-01-18 09:43:02,0.0
2764,-272,19052,-170,191,-173,2024-01-18 09:43:02,0.0
2800,-296,19060,-136,183,-162,2024-01-18 09:43:02,0.0
2776,-364,18900,-158,196,-193,2024-01-18 09:43:02,0.0
2760,-288,19036,-154,199,-197,2024-01-18 09:43:02,0.0
2740,-184,18848,-152,189,-176,2024-01-18 09:43:02,0.0
2700,-172,18988,-145,188,-207,2024-01-18 09:43:02,0.0
2688,-236,19028,-173,181,-190,2024-01-18 09:43:02,0.0
2784,-280,18904,-163,179,-165,2024-01-18 09:43:02,0.0
2800,-232,18984,-170,200,-168,2024-01-18 09:43:02,0.0
2728,-200,19024,-153,186,-181,2024-01-18 09:43:02,0.0
2700,-304,18984,-171,193,-174,2024-01-18 09:43:02,0.0
2684,-320,19052,-168,194,-184,2024-01-18 09:43:02,0.0
2728,-284,19020,-171,187,-184,2024-01-18 09:43:02,0.0
2756,-216,18932,-186,196,-205,2024-01-18 09:43:02,0.0
2776,-288,18976,-172,195,-176,2024-01-18 09:43:02,0.0
2700,-332,18872,-160,206,-174,2024-01-18 09:43:02,0.0
2760,-252,18816,-168,196,-183,2024-01-18 09:43:03,0.0
2772,-272,18976,-173,199,-195,2024-01-18 09:43:03,0.0
2796,-312,18944,-165,186,-197,2024-01-18 09:43:03,0.0
2852,-188,19052,-152,186,-185,2024-01-18 09:43:03,0.0
2792,-256,18948,-168,185,-174,2024-01-18 09:43:03,0.0
2784,-264,18840,-154,186,-167,2024-01-18 09:43:03,0.0
2804,-244,19108,-164,189,-185,2024-01-18 09:43:03,0.0
2672,-260,18980,-171,181,-192,2024-01-18 09:43:03,0.0
2784,-244,18940,-162,190,-180,2024-01-18 09:43:03,0.0
2784,-276,19044,-172,182,-164,2024-01-18 09:43:03,0.0
2680,-264,19044,-158,182,-203,2024-01-18 09:43:03,0.0
2716,-312,18956,-149,207,-166,2024-01-18 09:43:03,0.0
2760,-360,18868,-180,172,-176,2024-01-18 09:43:03,0.0
2732,-300,18884,-168,186,-190,2024-01-18 09:43:03,0.0
2792,-340,18884,-191,183,-180,2024-01-18 09:43:03,0.0
2644,-344,19080,-165,199,-187,2024-01-18 09:43:03,0.0
2752,-256,19024,-138,177,-183,2024-01-18 09:43:03,0.0
2872,-292,19056,-169,207,-178,2024-01-18 09:43:03,0.0
2812,-256,19040,-187,173,-172,2024-01-18 09:43:03,0.0
2728,-256,18988,-199,198,-173,2024-01-18 09:43:03,0.0
2768,-328,19012,-162,183,-191,2024-01-18 09:43:03,0.0
2748,-320,18940,-154,186,-193,2024-01-18 09:43:03,0.0
2728,-412,18988,-136,178,-173,2024-01-18 09:43:03,0.0
2752,-264,18956,-149,181,-169,2024-01-18 09:43:03,0.0
2664,-344,18940,-175,176,-192,2024-01-18 09:43:03,0.0
2808,-340,19020,-157,177,-176,2024-01-18 09:43:03,0.0
2664,-280,18912,-171,193,-205,2024-01-18 09:43:03,0.0
2748,-264,18948,-158,207,-183,2024-01-18 09:43:03,0.0
2716,-388,18984,-180,198,-187,2024-01-18 09:43:03,0.0
2808,-228,18932,-164,191,-192,2024-01-18 09:43:03,0.0
2752,-276,18976,-162,164,-199,2024-01-18 09:43:03,0.0
2740,-248,18932,-122,183,-179,2024-01-18 09:43:03,0.0
2816,-324,19036,-163,202,-179,2024-01-18 09:43:03,0.0
2652,-248,19052,-165,197,-184,2024-01-18 09:43:03,0.0
2768,-312,19032,-199,203,-205,2024-01-18 09:43:03,0.0
2828,-324,18928,-180,195,-197,2024-01-18 09:43:03,0.0
2824,-264,18932,-169,195,-187,2024-01-18 09:43:03,0.0
2704,-208,19028,-167,179,-171,2024-01-18 09:43:03,0.0
2780,-240,18896,-168,201,-189,2024-01-18 09:43:03,0.0
2780,-400,19084,-157,178,-173,2024-01-18 09:43:03,0.0
2724,-272,18880,-177,201,-184,2024-01-18 09:43:03,0.0
2636,-344,19104,-148,182,-178,2024-01-18 09:43:03,0.0
2868,-232,19120,-179,196,-187,2024-01-18 09:43:03,0.0
2700,-352,19108,-167,196,-169,2024-01-18 09:43:03,0.0
2800,-260,18932,-171,192,-168,2024-01-18 09:43:03,0.0
2756,-336,18980,-134,212,-167,2024-01-18 09:43:03,0.0
2804,-240,19000,-175,202,-197,2024-01-18 09:43:03,0.0
2752,-264,18956,-148,189,-187,2024-01-18 09:43:03,0.0
2764,-264,18848,-150,192,-197,2024-01-18 09:43:03,0.0
2696,-260,19040,-154,190,-192,2024-01-18 09:43:03,0.0
2812,-292,19036,-190,193,-180,2024-01-18 09:43:03,0.0
2720,-256,18856,-161,183,-195,2024-01-18 09:43:03,0.0
2672,-320,18972,-124,195,-195,2024-01-18 09:43:03,0.0
2656,-372,19028,-167,173,-191,2024-01-18 09:43:03,0.0
2824,-280,18968,-174,206,-188,2024-01-18 09:43:03,0.0
2804,-276,18956,-168,196,-190,2024-01-18 09:43:03,0.0
2860,-248,18896,-170,189,-194,2024-01-18 09:43:03,0.0
2848,-220,19100,-151,183,-184,2024-01-18 09:43:03,0.0
2716,-252,19036,-180,196,-186,2024-01-18 09:43:03,0.0
2748,-392,19040,-164,190,-178,2024-01-18 09:43:03,0.0
2712,-332,19004,-164,186,-176,2024-01-18 09:43:04,0.0
2736,-232,19052,-159,213,-196,2024-01-18 09:43:04,0.0
2728,-260,19000,-162,169,-186,2024-01-18 09:43:04,0.0
2716,-252,18912,-152,176,-175,2024-01-18 09:43:04,0.0
2720,-304,19104,-160,195,-174,2024-01-18 09:43:04,0.0
2724,-308,19052,-180,195,-186,2024-01-18 09:43:04,0.0
2820,-160,18992,-167,175,-169,2024-01-18 09:43:04,0.0
2844,-300,19108,-171,208,-186,2024-01-18 09:43:04,0.0
2776,-244,19020,-156,190,-183,2024-01-18 09:43:04,0.0
2800,-280,19012,-173,167,-177,2024-01-18 09:43:04,0.0
2772,-308,19096,-166,192,-193,2024-01-18 09:43:04,0.0
2768,-356,19052,-176,161,-195,2024-01-18 09:43:04,0.0
2760,-276,18964,-193,184,-186,2024-01-18 09:43:04,0.0
2652,-284,18920,-174,184,-185,2024-01-18 09:43:04,
2628,-248,19136,-156,214,-179,2024-01-18 09:43:04,0.0
2796,-308,19108,-159,198,-191,2024-01-18 09:43:04,0.0
2724,-320,18964,-156,188,-184,2024-01-18 09:43:04,0.0
2796,-324,18924,-148,190,-205,2024-01-18 09:43:04,0.0
2808,-316,18860,-195,190,-188,2024-01-18 09:43:04,0.0
2712,-264,18968,-169,210,-180,2024-01-18 09:43:04,0.0
2712,-272,19008,-164,197,-184,2024-01-18 09:43:04,0.0
2756,-344,18964,-186,173,-186,2024-01-18 09:43:04,0.0
2696,-260,18756,-161,198,-194,2024-01-18 09:43:04,0.0
2664,-300,18968,-148,209,-173,2024-01-18 09:43:04,0.0
2680,-284,19036,-184,185,-184,2024-01-18 09:43:04,0.0
2732,-296,18988,-172,181,-196,2024-01-18 09:43:04,0.0
2744,-256,19084,-169,201,-178,2024-01-18 09:43:04,0.0
2800,-204,18956,-145,186,-186,2024-01-18 09:43:04,0.0
2808,-360,19064,-165,157,-184,2024-01-18 09:43:04,0.0
2692,-344,19032,-177,197,-203,2024-01-18 09:43:04,0.0
2772,-232,19016,-186,188,-204,2024-01-18 09:43:04,0.0
2876,-340,19012,-152,189,-165,2024-01-18 09:43:04,0.0
2760,-184,18940,-175,182,-176,2024-01-18 09:43:04,0.0
2672,-320,19080,-165,178,-201,2024-01-18 09:43:04,0.0
2672,-340,19012,-146,197,-189,2024-01-18 09:43:04,0.0
2716,-360,19160,-180,212,-189,2024-01-18 09:43:04,0.0
2640,-328,18984,-167,182,-181,2024-01-18 09:43:04,0.0
2760,-272,18924,-159,160,-178,2024-01-18 09:43:04,0.0
2744,-232,18880,-176,166,-174,2024-01-18 09:43:04,0.0
2772,-272,18932,-166,174,-188,2024-01-18 09:43:04,0.0
2716,-372,18984,-168,182,-161,2024-01-18 09:43:04,0.0
2792,-308,19124,-185,183,-190,2024-01-18 09:43:04,0.0
2672,-276,18952,-172,192,-177,2024-01-18 09:43:04,0.0
2684,-300,18976,-163,165,-174,2024-01-18 09:43:04,0.0
2836,-244,18964,-152,185,-165,2024-01-18 09:43:04,0.0
2868,-376,18996,-165,187,-171,2024-01-18 09:43:04,0.0
2792,-236,19000,-141,189,-197,2024-01-18 09:43:04,0.0
2820,-232,18840,-167,192,-193,2024-01-18 09:43:04,0.0
2680,-240,19008,-154,188,-183,2024-01-18 09:43:04,0.0
2716,-240,19120,-148,164,-177,2024-01-18 09:43:04,0.0
2748,-252,18868,-161,193,-191,2024-01-18 09:43:04,0.0
2776,-332,19040,-157,190,-191,2024-01-18 09:43:04,0.0
2800,-276,18892,-171,193,-179,2024-01-18 09:43:04,0.0
2752,-332,18976,-183,198,-193,2024-01-18 09:43:04,0.0
2716,-244,18904,-191,192,-188,2024-01-18 09:43:04,0.0
2792,-276,18932,-152,207,-181,2024-01-18 09:43:04,0.0
2724,-252,19024,-148,191,-192,2024-01-18 09:43:04,0.0
2696,-284,19080,-185,182,-175,2024-01-18 09:43:04,0.0
2740,-240,19008,-181,177,-195,2024-01-18 09:43:04,0.0
2744,-224,18828,-168,190,-179,2024-01-18 09:43:04,0.0
2708,-240,19060,-173,174,-169,2024-01-18 09:43:05,0.0
2752,-216,18944,-154,185,-186,2024-01-18 09:43:05,0.0
2760,-300,18980,-186,202,-179,2024-01-18 09:43:05,0.0
2800,-292,18896,-138,202,-187,2024-01-18 09:43:05,0.0
2796,-248,18932,-188,189,-191,2024-01-18 09:43:05,0.0
2756,-324,19052,-159,180,-176,2024-01-18 09:43:05,0.0
2692,-288,18916,-198,184,-182,2024-01-18 09:43:05,0.0
2724,-316,19032,-188,174,-166,2024-01-18 09:43:05,0.0
2828,-260,19024,-164,202,-170,2024-01-18 09:43:05,0.0
2752,-348,18976,-174,184,-190,2024-01-18 09:43:05,0.0
2888,-404,19032,-202,181,-159,2024-01-18 09:43:05,0.0
2736,-312,19048,-170,165,-178,2024-01-18 09:43:05,0.0
2764,-240,18900,-182,197,-181,2024-01-18 09:43:05,0.0
2720,-292,18840,-170,161,-182,2024-01-18 09:43:05,0.0
2752,-316,19028,-162,201,-178,2024-01-18 09:43:05,0.0
2744,-236,18920,-173,204,-181,2024-01-18 09:43:05,0.0
2728,-272,18908,-185,196,-190,2024-01-18 09:43:05,0.0
2676,-324,18892,-165,192,-180,2024-01-18 09:43:05,0.0
2680,-304,18964,-155,171,-182,2024-01-18 09:43:05,0.0
2848,-368,18908,-179,193,-205,2024-01-18 09:43:05,0.0
2756,-260,19024,-188,200,-183,2024-01-18 09:43:05,0.0
2720,-352,18888,-181,194,-179,2024-01-18 09:43:05,0.0
2736,-352,19152,-171,191,-194,2024-01-18 09:43:05,0.0
2724,-256,19124,-162,193,-194,2024-01-18 09:43:05,0.0
2900,-204,18960,-152,205,-188,2024-01-18 09:43:05,0.0
2760,-216,19028,-160,183,-168,2024-01-18 09:43:05,0.0
2724,-348,18872,-151,201,-197,2024-01-18 09:43:05,0.0
2736,-280,19100,-173,191,-169,2024-01-18 09:43:05,0.0
2680,-260,18900,-167,196,-184,2024-01-18 09:43:05,0.0
2716,-252,19008,-162,201,-178,2024-01-18 09:43:05,0.0
2744,-268,19008,-179,185,-196,2024-01-18 09:43:05,0.0
2760,-308,19068,-179,178,-183,2024-01-18 09:43:05,0.0
2720,-284,18992,-185,185,-185,2024-01-18 09:43:05,0.0
2776,-304,19020,-182,181,-193,2024-01-18 09:43:05,0.0
2776,-332,19000,-173,184,-210,2024-01-18 09:43:05,0.0
2792,-256,18912,-156,176,-169,2024-01-18 09:43:05,0.0
2664,-260,19056,-172,185,-178,2024-01-18 09:43:05,0.0
2784,-384,18940,-161,188,-188,2024-01-18 09:43:05,0.0
2600,-320,19076,-181,199,-190,2024-01-18 09:43:05,0.0
2808,-220,18956,-166,182,-180,2024-01-18 09:43:05,0.0
2736,-276,18892,-173,190,-181,2024-01-18 09:43:05,0.0
2772,-252,18876,-150,192,-191,2024-01-18 09:43:05,0.0
2728,-324,18864,-177,190,-197,2024-01-18 09:43:05,0.0
2792,-300,19088,-162,222,-202,2024-01-18 09:43:05,0.0
2824,-236,18972,-161,198,-207,2024-01-18 09:43:05,0.0
2776,-288,19172,-145,180,-177,2024-01-18 09:43:05,0.0
2744,-384,19120,-167,180,-197,2024-01-18 09:43:05,0.0
2800,-280,18868,-155,195,-194,2024-01-18 09:43:05,0.0
2760,-184,19056,-174,191,-178,2024-01-18 09:43:05,0.0
2804,-336,19004,-147,209,-181,2024-01-18 09:43:05,0.0
2680,-300,19008,-160,191,-187,2024-01-18 09:43:05,0.0
2792,-276,18988,-176,186,-155,2024-01-18 09:43:05,0.0
2776,-236,19064,-183,190,-193,2024-01-18 09:43:05,0.0
2732,-220,18944,-161,209,-182,2024-01-18 09:43:05,
2776,-276,18992,-160,185,-188,2024-01-18 09:43:05,0.0
2812,-304,18812,-163,204,-196,2024-01-18 09:43:05,0.0
2744,-400,18968,-150,148,-186,2024-01-18 09:43:05,0.0
2736,-268,19120,-153,193,-187,2024-01-18 09:43:05,0.0
2764,-236,18904,-150,191,-173,2024-01-18 09:43:05,0.0
2776,-280,18968,-156,175,-190,2024-01-18 09:43:06,0.0
2688,-288,19064,-158,185,-179,2024-01-18 09:43:06,0.0
2836,-336,18932,-192,209,-190,2024-01-18 09:43:06,0.0
2720,-308,18964,-170,165,-191,2024-01-18 09:43:06,0.0
2696,-248,18896,-151,174,-181,2024-01-18 09:43:06,0.0
2828,-260,18944,-165,192,-183,2024-01-18 09:43:06,0.0
2772,-356,18908,-177,196,-180,2024-01-18 09:43:06,0.0
2808,-408,18940,-171,184,-139,2024-01-18 09:43:06,0.0
2716,-216,18952,-152,210,-181,2024-01-18 09:43:06,0.0
2736,-252,18872,-161,172,-172,2024-01-18 09:43:06,0.0
2720,-144,18852,-181,193,-174,2024-01-18 09:43:06,0.0
2676,-236,18892,-187,196,-187,2024-01-18 09:43:06,0.0
2752,-244,18904,-164,189,-166,2024-01-18 09:43:06,0.0
2876,-300,18836,-159,175,-194,2024-01-18 09:43:06,0.0
2700,-256,18912,-167,187,-165,2024-01-18 09:43:06,0.0
2756,-336,18888,-148,190,-190,2024-01-18 09:43:06,0.0
2768,-292,19024,-183,198,-170,2024-01-18 09:43:06,0.0
2788,-328,18908,-176,208,-180,2024-01-18 09:43:06,0.0
2732,-296,18928,-172,205,-201,2024-01-18 09:43:06,0.0
2712,-392,19112,-172,199,-185,2024-01-18 09:43:06,0.0
2700,-228,18892,-164,183,-185,2024-01-18 09:43:06,0.0
2756,-244,18976,-164,186,-160,2024-01-18 09:43:06,0.0
2776,-208,18988,-149,173,-197,2024-01-18 09:43:06,0.0
2772,-240,18912,-167,194,-191,2024-01-18 09:43:06,0.0
2776,-284,19004,-140,204,-175,2024-01-18 09:43:06,0.0
2844,-284,19036,-146,189,-206,2024-01-18 09:43:06,0.0
2812,-328,19020,-170,192,-182,2024-01-18 09:43:06,0.0
2688,-300,19028,-148,191,-174,2024-01-18 09:43:06,0.0
2700,-184,18916,-160,164,-193,2024-01-18 09:43:06,0.0
2820,-364,18888,-150,186,-188,2024-01-18 09:43:06,0.0
2740,-344,18940,-161,207,-186,2024-01-18 09:43:06,0.0
2840,-372,19000,-147,194,-202,2024-01-18 09:43:06,0.0
2764,-316,19048,-167,178,-180,2024-01-18 09:43:06,0.0
2776,-256,18972,-162,184,-167,2024-01-18 09:43:06,0.0
2780,-268,18936,-186,196,-205,2024-01-18 09:43:06,0.0
2736,-236,18996,-149,185,-197,2024-01-18 09:43:06,0.0
2752,-352,18984,-160,186,-193,2024-01-18 09:43:06,0.0
2720,-228,18880,-180,213,-180,2024-01-18 09:43:06,0.0
2756,-264,18952,-148,188,-178,2024-01-18 09:43:06,0.0
2784,-268,19032,-166,186,-174,2024-01-18 09:43:06,0.0
2752,-280,18984,-169,175,-172,2024-01-18 09:43:06,0.0
2712,-312,19144,-159,185,-200,2024-01-18 09:43:06,0.0
2648,-312,19112,-178,190,-197,2024-01-18 09:43:06,0.0
2812,-236,18988,-154,211,-210,2024-01-18 09:43:06,0.0
2732,-372,18900,-135,193,-176,2024-01-18 09:43:06,0.0
2812,-292,18980,-180,191,-177,2024-01-18 09:43:06,0.0
2636,-344,18980,-188,185,-187,2024-01-18 09:43:06,0.0
2772,-324,18948,-169,160,-175,2024-01-18 09:43:06,0.0
2792,-320,19128,-154,189,-181,2024-01-18 09:43:06,0.0
2816,-248,18964,-148,199,-185,2024-01-18 09:43:06,0.0
2832,-260,19072,-146,186,-194,2024-01-18 09:43:06,0.0
2820,-256,18976,-162,192,-181,2024-01-18 09:43:06,0.0
2804,-340,19052,-142,195,-186,2024-01-18 09:43:06,0.0
2684,-216,18972,-185,172,-206,2024-01-18 09:43:06,0.0
2748,-312,18920,-181,182,-185,2024-01-18 09:43:06,0.0
2752,-240,19020,-174,200,-187,2024-01-18 09:43:06,0.0
2760,-228,19020,-164,186,-195,2024-01-18 09:43:06,0.0
2748,-284,18900,-146,159,-192,2024-01-18 09:43:06,0.0
2700,-272,18964,-154,209,-183,2024-01-18 09:43:06,0.0
2776,-236,18968,-179,183,-181,2024-01-18 09:43:06,0.0
2712,-264,18924,-174,186,-201,2024-01-18 09:43:06,0.0
2800,-228,19060,-184,183,-185,2024-01-18 09:43:07,0.0
2776,-232,19184,-175,188,-183,2024-01-18 09:43:07,0.0
2784,-292,18924,-173,187,-177,2024-01-18 09:43:07,0.0
2700,-328,19012,-160,196,-189,2024-01-18 09:43:07,0.0
2724,-252,18936,-158,209,-190,2024-01-18 09:43:07,0.0
2712,-260,18920,-165,186,-182,2024-01-18 09:43:07,0.0
2792,-324,18932,-161,168,-203,2024-01-18 09:43:07,0.0
2724,-300,18888,-173,169,-189,2024-01-18 09:43:07,0.0
2852,-284,18952,-192,188,-197,2024-01-18 09:43:07,0.0
2828,-296,18832,-168,200,-175,2024-01-18 09:43:07,0.0
2692,-300,18980,-149,184,-182,2024-01-18 09:43:07,0.0
2724,-308,18848,-185,187,-179,2024-01-18 09:43:07,0.0
2716,-280,19112,-165,181,-209,2024-01-18 09:43:07,0.0
2788,-208,18924,-167,211,-183,2024-01-18 09:43:07,0.0
2784,-268,18960,-166,183,-177,2024-01-18 09:43:07,0.0
2704,-252,18928,-175,194,-177,2024-01-18 09:43:07,0.0
2736,-240,18944,-177,206,-176,2024-01-18 09:43:07,0.0
2652,-244,18964,-190,190,-187,2024-01-18 09:43:07,0.0
2724,-304,18876,-180,218,-175,2024-01-18 09:43:07,0.0
2776,-268,18872,-164,158,-162,2024-01-18 09:43:07,0.0
2872,-324,18980,-165,214,-169,2024-01-18 09:43:07,0.0
2796,-280,18892,-170,182,-168,2024-01-18 09:43:07,0.0
2732,-280,19012,-182,184,-189,2024-01-18 09:43:07,0.0
2760,-272,19172,-155,185,-195,2024-01-18 09:43:07,0.0
2736,-280,18856,-166,176,-163,2024-01-18 09:43:07,0.0
2724,-216,18912,-204,187,-168,2024-01-18 09:43:07,0.0
2724,-332,18904,-171,193,-182,2024-01-18 09:43:07,0.0
2764,-260,18932,-170,179,-206,2024-01-18 09:43:07,0.0
2732,-304,19160,-151,164,-172,2024-01-18 09:43:07,0.0
2748,-292,18808,-162,177,-169,2024-01-18 09:43:07,0.0
2844,-296,19092,-207,247,-180,2024-01-18 09:43:07,0.0
2784,-300,18812,-157,183,-201,2024-01-18 09:43:07,0.0
2812,-268,18856,-165,189,-184,2024-01-18 09:43:07,0.0
2608,-364,19080,-175,189,-180,2024-01-18 09:43:07,
2648,-168,18996,-172,199,-188,2024-01-18 09:43:07,0.0
2688,-264,19064,-166,196,-169,2024-01-18 09:43:07,0.0
2796,-212,19028,-171,224,-187,2024-01-18 09:43:07,0.0
2664,-312,19064,-182,182,-207,2024-01-18 09:43:07,0.0
2664,-332,18888,-156,204,-181,2024-01-18 09:43:07,0.0
2784,-264,18948,-182,209,-208,2024-01-18 09:43:07,0.0
2796,-268,19076,-154,186,-180,2024-01-18 09:43:07,0.0
2816,-264,18980,-181,182,-175,2024-01-18 09:43:07,0.0
2752,-316,19060,-148,199,-173,2024-01-18 09:43:07,0.0
2776,-284,18944,-168,207,-166,2024-01-18 09:43:07,0.0
2728,-320,19052,-164,201,-177,2024-01-18 09:43:07,0.0
2748,-284,18900,-169,209,-191,2024-01-18 09:43:07,0.0
2612,-304,18988,-161,187,-185,2024-01-18 09:43:07,0.0
2828,-232,18884,-166,190,-181,2024-01-18 09:43:07,0.0
2772,-252,19032,-164,183,-189,2024-01-18 09:43:07,0.0
2824,-308,18880,-172,173,-199,2024-01-18 09:43:07,0.0
2772,-248,18744,-182,237,-168,2024-01-18 09:43:07,0.0
2716,-288,18880,-168,161,-199,2024-01-18 09:43:07,0.0
2756,-312,18864,-169,185,-191,2024-01-18 09:43:07,0.0
2768,-284,18876,-174,181,-204,2024-01-18 09:43:07,0.0
2772,-308,19064,-160,204,-195,2024-01-18 09:43:07,0.0
2676,-312,18920,-170,193,-200,2024-01-18 09:43:07,0.0
2720,-256,18856,-156,190,-203,2024-01-18 09:43:07,0.0
2688,-268,18972,-152,205,-189,2024-01-18 09:43:07,0.0
2768,-192,18944,-175,174,-184,2024-01-18 09:43:07,0.0
2768,-236,19040,-193,162,-198,2024-01-18 09:43:07,0.0
2784,-244,18924,-147,185,-178,2024-01-18 09:43:07,0.0
2748,-308,19012,-149,201,-200,2024-01-18 09:43:08,0.0
2660,-256,18908,-163,167,-177,2024-01-18 09:43:08,0.0
2668,-268,19168,-148,191,-192,2024-01-18 09:43:08,0.0
2676,-288,18948,-170,188,-175,2024-01-18 09:43:08,0.0
2812,-296,19048,-151,193,-196,2024-01-18 09:43:08,0.0
2776,-276,18912,-182,175,-183,2024-01-18 09:43:08,0.0
2768,-232,19004,-141,188,-183,2024-01-18 09:43:08,0.0
2780,-276,18924,-141,187,-159,2024-01-18 09:43:08,0.0
2736,-256,19000,-159,188,-173,2024-01-18 09:43:08,0.0
2752,-268,19056,-179,162,-204,2024-01-18 09:43:08,0.0
2808,-232,18992,-165,182,-186,2024-01-18 09:43:08,0.0
2748,-344,19052,-169,189,-166,2024-01-18 09:43:08,0.0
2772,-328,18976,-162,195,-182,2024-01-18 09:43:08,0.0
2728,-356,18844,-170,170,-193,2024-01-18 09:43:08,0.0
2736,-256,19100,-170,186,-178,2024-01-18 09:43:08,0.0
2792,-296,18760,-167,184,-189,2024-01-18 09:43:08,0.0
2740,-300,19024,-157,208,-188,2024-01-18 09:43:08,0.0
2756,-260,18896,-160,183,-173,2024-01-18 09:43:08,0.0
2760,-240,19000,-172,212,-194,2024-01-18 09:43:08,0.0
2768,-328,18968,-173,180,-194,2024-01-18 09:43:08,0.0
2724,-284,19060,-162,195,-187,2024-01-18 09:43:08,0.0
2656,-288,19108,-190,195,-179,2024-01-18 09:43:08,0.0
2832,-296,19116,-150,187,-184,2024-01-18 09:43:08,0.0
2632,-276,18876,-173,196,-164,2024-01-18 09:43:08,0.0
2688,-244,18880,-162,198,-168,2024-01-18 09:43:08,0.0
2688,-264,18916,-161,178,-179,2024-01-18 09:43:08,0.0
2792,-244,18852,-157,187,-190,2024-01-18 09:43:08,0.0
2756,-284,18984,-173,186,-201,2024-01-18 09:43:08,0.0
2712,-228,19044,-162,193,-185,2024-01-18 09:43:08,0.0
2676,-308,19040,-168,168,-182,2024-01-18 09:43:08,0.0
2784,-312,18944,-172,174,-163,2024-01-18 09:43:08,0.0
2720,-196,18928,-161,194,-175,2024-01-18 09:43:08,0.0
2760,-340,18892,-161,161,-181,2024-01-18 09:43:08,0.0
2744,-288,18868,-161,204,-170,2024-01-18 09:43:08,0.0
2744,-296,18896,-168,199,-181,2024-01-18 09:43:08,0.0
2700,-292,18960,-173,213,-191,2024-01-18 09:43:08,0.0
2748,-228,18880,-142,167,-175,2024-01-18 09:43:08,0.0
2660,-260,19172,-162,213,-178,2024-01-18 09:43:08,0.0
2640,-236,18876,-175,176,-206,2024-01-18 09:43:08,0.0
2780,-264,18940,-163,194,-185,2024-01-18 09:43:08,0.0
2788,-252,18888,-148,191,-147,2024-01-18 09:43:08,0.0
2752,-256,18900,-168,189,-176,2024-01-18 09:43:08,0.0
2688,-256,18908,-153,177,-182,2024-01-18 09:43:08,0.0
2788,-296,18832,-191,198,-168,2024-01-18 09:43:08,0.0
2780,-348,19104,-156,191,-183,2024-01-18 09:43:08,0.0
2652,-280,19048,-175,181,-178,2024-01-18 09:43:08,0.0
2752,-300,19068,-154,191,-189,2024-01-18 09:43:08,0.0
2704,-216,19004,-171,199,-162,2024-01-18 09:43:08,0.0
2812,-356,19068,-159,201,-193,2024-01-18 09:43:08,0.0
2732,-304,18968,-183,197,-181,2024-01-18 09:43:08,0.0
2812,-356,19024,-153,173,-184,2024-01-18 09:43:08,0.0
2840,-328,18976,-168,175,-185,2024-01-18 09:43:08,0.0
2824,-240,18996,-181,220,-184,2024-01-18 09:43:08,0.0
2636,-348,18908,-154,208,-198,2024-01-18 09:43:08,0.0
2668,-224,19044,-170,193,-194,2024-01-18 09:43:08,0.0
2760,-264,18856,-125,168,-189,2024-01-18 09:43:08,0.0
2764,-232,18988,-146,194,-179,2024-01-18 09:43:08,0.0
2728,-376,18988,-173,171,-175,2024-01-18 09:43:08,0.0
2860,-220,18976,-150,203,-172,2024-01-18 09:43:08,0.0
2736,-296,19028,-177,170,-195,2024-01-18 09:43:08,0.0
2840,-292,19040,-153,204,-186,2024-01-18 09:43:09,0.0
2828,-268,19052,-164,203,-193,2024-01-18 09:43:09,0.0
2720,-356,18908,-180,193,-183,2024-01-18 09:43:09,0.0
2772,-292,18880,-131,199,-171,2024-01-18 09:43:09,0.0
2704,-272,18964,-172,198,-191,2024-01-18 09:43:09,0.0
2728,-260,18932,-177,193,-205,2024-01-18 09:43:09,0.0
2760,-296,18832,-176,180,-170,2024-01-18 09:43:09,0.0
2672,-196,18900,-152,180,-181,2024-01-18 09:43:09,0.0
2728,-292,19008,-137,185,-178,2024-01-18 09:43:09,0.0
2784,-224,19028,-166,193,-198,2024-01-18 09:43:09,0.0
2788,-240,18820,-174,204,-182,2024-01-18 09:43:09,0.0
2796,-208,18880,-173,198,-189,2024-01-18 09:43:09,0.0
2772,-240,18988,-157,167,-173,2024-01-18 09:43:09,
2840,-320,19068,-172,208,-192,2024-01-18 09:43:09,0.0
2812,-256,18880,-199,164,-174,2024-01-18 09:43:09,0.0
2736,-320,18848,-165,185,-193,2024-01-18 09:43:09,0.0
2768,-356,19044,-158,183,-182,2024-01-18 09:43:09,0.0
2812,-328,19008,-177,192,-158,2024-01-18 09:43:09,0.0
2788,-264,19012,-173,194,-182,2024-01-18 09:43:09,0.0
2768,-340,18984,-171,162,-168,2024-01-18 09:43:09,0.0
2772,-276,19024,-177,183,-202,2024-01-18 09:43:09,0.0
2772,-308,19016,-172,190,-167,2024-01-18 09:43:09,0.0
2784,-260,18964,-175,184,-190,2024-01-18 09:43:09,0.0
2756,-324,19056,-156,184,-187,2024-01-18 09:43:09,0.0
2708,-292,19040,-167,212,-175,2024-01-18 09:43:09,0.0
2740,-244,19096,-168,187,-181,2024-01-18 09:43:09,0.0
2784,-260,18932,-168,201,-199,2024-01-18 09:43:09,0.0
2744,-248,18988,-159,166,-176,2024-01-18 09:43:09,0.0
2768,-236,18780,-151,198,-177,2024-01-18 09:43:09,0.0
2748,-288,19000,-156,181,-200,2024-01-18 09:43:09,0.0
2684,-296,19024,-177,183,-197,2024-01-18 09:43:09,0.0
2980,-312,19088,-165,206,-174,2024-01-18 09:43:09,0.0
2828,-404,18988,-151,171,-161,2024-01-18 09:43:09,0.0
2784,-304,18924,-180,200,-183,2024-01-18 09:43:09,0.0
2740,-296,18904,-151,187,-184,2024-01-18 09:43:09,0.0
2800,-264,18884,-150,181,-188,2024-01-18 09:43:09,0.0
2792,-260,19024,-187,198,-178,2024-01-18 09:43:09,0.0
2796,-276,18976,-172,203,-165,2024-01-18 09:43:09,0.0
2740,-280,18948,-182,187,-198,2024-01-18 09:43:09,0.0
2672,-320,19020,-162,187,-164,2024-01-18 09:43:09,0.0
2744,-332,19092,-162,184,-178,2024-01-18 09:43:09,0.0
2680,-192,18932,-173,185,-185,2024-01-18 09:43:09,0.0
2748,-340,18896,-185,191,-194,2024-01-18 09:43:09,0.0
2776,-288,19064,-175,163,-171,2024-01-18 09:43:09,0.0
2784,-300,19088,-175,200,-187,2024-01-18 09:43:09,0.0
2812,-220,19000,-180,191,-182,2024-01-18 09:43:09,0.0
2712,-284,19068,-171,187,-199,2024-01-18 09:43:09,0.0
2752,-300,19076,-166,187,-188,2024-01-18 09:43:09,0.0
2672,-300,19016,-163,176,-171,2024-01-18 09:43:09,0.0
2780,-260,19036,-163,180,-190,2024-01-18 09:43:09,0.0
2868,-292,19088,-173,176,-176,2024-01-18 09:43:09,0.0
2780,-96,19052,-206,221,-184,2024-01-18 09:43:09,0.0
2828,-372,18904,-160,188,-169,2024-01-18 09:43:09,0.0
2596,-396,18936,-175,182,-192,2024-01-18 09:43:09,0.0
2836,-352,19000,-182,191,-211,2024-01-18 09:43:09,0.0
2832,-320,18880,-144,192,-188,2024-01-18 09:43:09,0.0
2812,-296,18840,-151,202,-167,2024-01-18 09:43:09,0.0
2756,-312,18888,-166,195,-186,2024-01-18 09:43:09,0.0
2824,-212,18920,-159,157,-180,2024-01-18 09:43:09,0.0
2736,-244,18936,-174,201,-182,2024-01-18 09:43:09,0.0
2752,-332,18948,-170,178,-179,2024-01-18 09:43:10,0.0
2836,-216,18896,-174,205,-183,2024-01-18 09:43:10,0.0
2724,-328,18996,-150,194,-177,2024-01-18 09:43:10,0.0
2740,-192,19072,-167,218,-184,2024-01-18 09:43:10,0.0
2740,-244,18976,-155,182,-161,2024-01-18 09:43:10,0.0
2704,-204,18832,-182,204,-163,2024-01-18 09:43:10,0.0
2804,-340,18920,-167,196,-183,2024-01-18 09:43:10,0.0
2712,-164,18960,-178,189,-174,2024-01-18 09:43:10,0.0
2732,-256,19036,-173,190,-203,2024-01-18 09:43:10,0.0
2772,-260,18984,-152,188,-203,2024-01-18 09:43:10,0.0
2732,-284,19132,-137,174,-195,2024-01-18 09:43:10,0.0
2804,-316,19072,-165,200,-175,2024-01-18 09:43:10,0.0
2868,-208,19076,-181,190,-197,2024-01-18 09:43:10,0.0
2724,-300,19008,-180,196,-171,2024-01-18 09:43:10,0.0
2788,-280,18920,-181,199,-178,2024-01-18 09:43:10,0.0
2728,-280,18976,-172,186,-196,2024-01-18 09:43:10,0.0
2744,-296,19064,-157,182,-214,2024-01-18 09:43:10,0.0
2716,-304,18956,-165,202,-182,2024-01-18 09:43:10,0.0
2724,-320,19068,-160,189,-169,2024-01-18 09:43:10,0.0
2808,-256,19004,-176,190,-208,2024-01-18 09:43:10,0.0
2796,-380,18864,-165,200,-182,2024-01-18 09:43:10,0.0
2732,-424,19004,-170,209,-177,2024-01-18 09:43:10,0.0
2740,-292,18884,-171,184,-192,2024-01-18 09:43:10,0.0
2780,-372,19108,-157,182,-192,2024-01-18 09:43:10,0.0
2828,-212,18968,-148,194,-200,2024-01-18 09:43:10,0.0
2740,-352,19052,-154,182,-180,2024-01-18 09:43:10,0.0
2792,-228,19024,-173,206,-168,2024-01-18 09:43:10,0.0
2708,-312,18820,-173,193,-186,2024-01-18 09:43:10,0.0
2676,-292,19100,-161,185,-172,2024-01-18 09:43:10,0.0
2648,-300,19032,-198,213,-187,2024-01-18 09:43:10,0.0
2856,-284,19052,-164,168,-187,2024-01-18 09:43:10,0.0
2768,-264,19008,-187,211,-165,2024-01-18 09:43:10,0.0
2768,-220,19024,-182,191,-175,2024-01-18 09:43:10,0.0
2708,-236,18884,-176,187,-161,2024-01-18 09:43:10,0.0
2684,-340,19012,-150,193,-179,2024-01-18 09:43:10,0.0
2732,-296,18948,-194,202,-194,2024-01-18 09:43:10,0.0
2788,-248,19040,-166,162,-194,2024-01-18 09:43:10,0.0
2708,-276,19020,-170,209,-167,2024-01-18 09:43:10,0.0
2704,-292,19032,-173,200,-168,2024-01-18 09:43:10,0.0
2732,-160,18968,-152,200,-183,2024-01-18 09:43:10,0.0
2812,-152,18848,-200,198,-184,2024-01-18 09:43:10,0.0
2720,-228,19012,-158,170,-178,2024-01-18 09:43:10,0.0
2688,-364,18952,-183,175,-178,2024-01-18 09:43:10,0.0
2700,-300,19052,-167,188,-185,2024-01-18 09:43:10,0.0
2768,-340,18936,-172,196,-186,2024-01-18 09:43:10,0.0
2864,-272,19044,-152,204,-171,2024-01-18 09:43:10,0.0
2796,-256,18844,-165,176,-198,2024-01-18 09:43:10,0.0
2736,-324,19008,-164,177,-189,2024-01-18 09:43:10,0.0
2800,-232,18996,-187,201,-168,2024-01-18 09:43:10,0.0
2620,-316,19032,-143,169,-215,2024-01-18 09:43:10,0.0
2696,-300,18868,-168,224,-184,2024-01-18 09:43:10,0.0
2768,-308,19012,-177,197,-189,2024-01-18 09:43:10,0.0
2780,-260,18940,-162,181,-200,2024-01-18 09:43:10,
2680,-316,19028,-177,185,-198,2024-01-18 09:43:10,0.0
2696,-336,19064,-154,198,-196,2024-01-18 09:43:10,0.0
2720,-248,18980,-184,193,-190,2024-01-18 09:43:10,0.0
2840,-184,19040,-207,185,-178,2024-01-18 09:43:10,0.0
2720,-284,18952,-177,181,-182,2024-01-18 09:43:10,0.0
2792,-392,18792,-168,187,-191,2024-01-18 09:43:11,0.0
2784,-348,18904,-152,188,-190,2024-01-18 09:43:11,0.0
2736,-304,18984,-141,197,-186,2024-01-18 09:43:11,0.0
2812,-384,18976,-157,192,-193,2024-01-18 09:43:11,0.0
2756,-256,18820,-168,176,-172,2024-01-18 09:43:11,0.0
2696,-276,18944,-154,180,-187,2024-01-18 09:43:11,0.0
2808,-184,18996,-178,200,-173,2024-01-18 09:43:11,0.0
2864,-244,18928,-149,201,-172,2024-01-18 09:43:11,0.0
2680,-320,18860,-153,183,-176,2024-01-18 09:43:11,0.0
2760,-336,19040,-157,185,-178,2024-01-18 09:43:11,0.0
2708,-228,19008,-180,185,-171,2024-01-18 09:43:11,0.0
2712,-284,19068,-158,192,-183,2024-01-18 09:43:11,0.0
2808,-264,18908,-169,190,-172,2024-01-18 09:43:11,0.0
2804,-404,18940,-151,197,-180,2024-01-18 09:43:11,0.0
2768,-188,18972,-184,194,-174,2024-01-18 09:43:11,0.0
2808,-340,18936,-183,193,-188,2024-01-18 09:43:11,0.0
2800,-292,18980,-175,182,-184,2024-01-18 09:43:11,0.0
2724,-312,19072,-182,163,-190,2024-01-18 09:43:11,0.0
2728,-328,19000,-160,203,-204,2024-01-18 09:43:11,0.0
2732,-356,19032,-185,190,-187,2024-01-18 09:43:11,0.0
2808,-284,18908,-190,192,-181,2024-01-18 09:43:11,0.0
2776,-284,18892,-155,190,-213,2024-01-18 09:43:11,0.0
2860,-296,18952,-161,207,-192,2024-01-18 09:43:11,0.0
2792,-308,19040,-182,191,-197,2024-01-18 09:43:11,0.0
2660,-192,19084,-168,193,-193,2024-01-18 09:43:11,0.0
2776,-328,19056,-141,188,-176,2024-01-18 09:43:11,0.0
2828,-304,18940,-169,167,-166,2024-01-18 09:43:11,0.0
2796,-312,19084,-176,194,-159,2024-01-18 09:43:11,0.0
2868,-356,18956,-140,175,-180,2024-01-18 09:43:11,0.0
2804,-192,18928,-143,195,-193,2024-01-18 09:43:11,0.0
2676,-212,18976,-184,160,-179,2024-01-18 09:43:11,0.0
2708,-204,18968,-176,174,-183,2024-01-18 09:43:11,0.0
2716,-176,19100,-171,207,-172,2024-01-18 09:43:11,0.0
2748,-380,19020,-164,190,-213,2024-01-18 09:43:11,0.0
2688,-328,18956,-190,189,-204,2024-01-18 09:43:11,0.0
2716,-340,18956,-157,198,-179,2024-01-18 09:43:11,0.0
2628,-384,18928,-161,170,-186,2024-01-18 09:43:11,0.0
2756,-272,18884,-157,189,-180,2024-01-18 09:43:11,0.0
2760,-208,19104,-170,202,-190,2024-01-18 09:43:11,0.0
2800,-328,18976,-146,178,-190,2024-01-18 09:43:11,0.0
2828,-348,18904,-144,206,-183,2024-01-18 09:43:11,0.0
2740,-248,19060,-184,167,-186,2024-01-18 09:43:11,0.0
2776,-288,18912,-169,181,-164,2024-01-18 09:43:11,0.0
2632,-268,19020,-167,192,-181,2024-01-18 09:43:11,0.0
2832,-264,19044,-161,190,-192,2024-01-18 09:43:11,0.0
2692,-328,19052,-139,185,-185,2024-01-18 09:43:11,0.0
2828,-236,18968,-174,183,-175,2024-01-18 09:43:11,0.0
2732,-236,18912,-156,176,-156,2024-01-18 09:43:11,0.0
2768,-224,19012,-181,177,-189,2024-01-18 09:43:11,0.0
2696,-264,18812,-147,162,-190,2024-01-18 09:43:11,0.0
2784,-292,18964,-162,186,-194,2024-01-18 09:43:11,0.0
2724,-244,19072,-161,183,-182,2024-01-18 09:43:11,0.0
2740,-300,19000,-158,194,-175,2024-01-18 09:43:11,0.0
2808,-288,19044,-146,188,-177,2024-01-18 09:43:11,0.0
2816,-280,18968,-191,204,-186,2024-01-18 09:43:11,0.0
2688,-220,18860,-148,174,-193,2024-01-18 09:43:11,0.0
2692,-248,18984,-180,201,-196,2024-01-18 09:43:11,0.0
2812,-316,18880,-160,182,-172,2024-01-18 09:43:11,0.0
2772,-316,18844,-190,191,-187,2024-01-18 09:43:11,0.0
2800,-384,19072,-160,202,-188,2024-01-18 09:43:11,0.0
2772,-256,19076,-146,190,-176,2024-01-18 09:43:11,0.0
2760,-352,19032,-170,170,-189,2024-01-18 09:43:11,0.0
2688,-328,19060,-168,210,-186,2024-01-18 09:43:12,0.0
2760,-268,18860,-153,161,-190,2024-01-18 09:43:12,0.0
2792,-308,19012,-177,182,-194,2024-01-18 09:43:12,0.0
2752,-324,19016,-168,186,-170,2024-01-18 09:43:12,0.0
2804,-284,18880,-176,185,-187,2024-01-18 09:43:12,0.0
2724,-240,18904,-146,186,-177,2024-01-18 09:43:12,0.0
2768,-288,19064,-184,194,-187,2024-01-18 09:43:12,0.0
2796,-248,18956,-183,162,-172,2024-01-18 09:43:12,0.0
2736,-364,18972,-175,220,-180,2024-01-18 09:43:12,0.0
2740,-264,18944,-155,187,-181,2024-01-18 09:43:12,0.0
2696,-192,18900,-159,208,-183,2024-01-18 09:43:12,0.0
2704,-268,18880,-176,194,-191,2024-01-18 09:43:12,0.0
2812,-344,18984,-182,211,-183,2024-01-18 09:43:12,0.0
2776,-304,18968,-181,167,-180,2024-01-18 09:43:12,0.0
2764,-288,19052,-160,213,-199,2024-01-18 09:43:12,0.0
2652,-264,19092,-157,197,-186,2024-01-18 09:43:12,0.0
2716,-324,19052,-152,177,-197,2024-01-18 09:43:12,0.0
2732,-368,18964,-178,189,-176,2024-01-18 09:43:12,0.0
2776,-320,19096,-175,209,-167,2024-01-18 09:43:12,0.0
2740,-312,18956,-150,168,-175,2024-01-18 09:43:12,0.0
2760,-244,19072,-162,196,-208,2024-01-18 09:43:12,0.0
2792,-316,18912,-165,195,-172,2024-01-18 09:43:12,0.0
2704,-296,18908,-158,188,-184,2024-01-18 09:43:12,0.0
2724,-348,18944,-156,184,-178,2024-01-18 09:43:12,0.0
2788,-284,18960,-164,177,-169,2024-01-18 09:43:12,0.0
2748,-300,18872,-180,190,-183,2024-01-18 09:43:12,0.0
2660,-272,18968,-155,183,-190,2024-01-18 09:43:12,0.0
2664,-236,18996,-193,185,-182,2024-01-18 09:43:12,0.0
2776,-316,18912,-155,176,-183,2024-01-18 09:43:12,0.0
2684,-304,18812,-162,117,-176,2024-01-18 09:43:12,0.0
2584,-316,19328,-193,147,-183,2024-01-18 09:43:12,0.0
2800,-244,18776,-162,253,-172,2024-01-18 09:43:12,0.0
2852,-336,19024,-188,230,-189,2024-01-18 09:43:12,
2744,-328,19040,-142,155,-172,2024-01-18 09:43:12,0.0
2668,-256,19024,-176,164,-170,2024-01-18 09:43:12,0.0
2708,-180,19052,-163,178,-194,2024-01-18 09:43:12,0.0
2780,-296,18924,-180,269,-184,2024-01-18 09:43:12,0.0
2688,-284,18844,-159,116,-190,2024-01-18 09:43:12,0.0
2852,-320,18964,-180,257,-177,2024-01-18 09:43:12,0.0
2608,-384,18980,-179,136,-192,2024-01-18 09:43:12,0.0
2756,-352,18732,-166,205,-183,2024-01-18 09:43:12,0.0
2748,-236,19144,-162,203,-173,2024-01-18 09:43:12,0.0
2532,-408,19756,-192,-495,-236,2024-01-18 09:43:12,0.0
2900,-268,18324,-267,868,-181,2024-01-18 09:43:12,0.0
2524,-428,19472,-305,815,-178,2024-01-18 09:43:12,0.0
2720,-448,18992,-148,402,-173,2024-01-18 09:43:12,0.0
1648,-3056,18232,-188,1717,-401,2024-01-18 09:43:12,0.0
-836,168,19044,-15,2088,1628,2024-01-18 09:43:12,0.0
1180,548,18852,-67,1229,2996,2024-01-18 09:43:12,0.0
4332,400,18776,-230,151,2914,2024-01-18 09:43:12,0.0
5932,-100,19132,-194,249,735,2024-01-18 09:43:12,0.0
3812,-232,19036,-172,235,-509,2024-01-18 09:43:12,0.0
2420,252,18520,-340,-648,-1089,2024-01-18 09:43:12,0.0
1720,-432,19208,-290,-345,-1148,2024-01-18 09:43:12,0.0
1488,-396,18920,-260,221,-620,2024-01-18 09:43:12,0.0
1392,-684,18780,-308,792,701,2024-01-18 09:43:12,0.0
3164,-600,18808,-601,212,979,2024-01-18 09:43:12,0.0
3072,-1936,19468,-840,358,535,2024-01-18 09:43:12,0.0
1396,-1360,19408,-1185,875,825,2024-01-18 09:43:12,0.0
1392,-1084,19972,-851,534,1535,2024-01-18 09:43:12,0.0
808,444,20740,265,1187,2606,2024-01-18 09:43:13,0.0
104,704,20636,1533,1688,4419,2024-01-18 09:43:13,0.0
3572,16,20056,2627,935,4613,2024-01-18 09:43:13,0.0
5520,-1020,19700,3490,-83,3133,2024-01-18 09:43:13,0.0
4552,-544,18556,3428,61,1572,2024-01-18 09:43:13,0.0
-1264,-468,19180,3093,2196,2268,2024-01-18 09:43:13,0.0
-2364,-620,20464,3685,1544,4975,2024-01-18 09:43:13,0.0
788,-76,21624,5200,-42,6405,2024-01-18 09:43:13,0.0
4264,12,22316,7035,-1481,6019,2024-01-18 09:43:13,0.0
6144,884,22444,8468,-1652,4596,2024-01-18 09:43:13,0.0
7188,1140,23804,10442,1225,2397,2024-01-18 09:43:13,0.0
4548,1532,20692,11245,3771,427,2024-01-18 09:43:13,0.0
2476,-840,22972,12566,3625,33,2024-01-18 09:43:13,0.0
2192,1200,22500,14603,1132,-221,2024-01-18 09:43:13,0.0
1756,3908,20396,14135,-322,-666,2024-01-18 09:43:13,0.0
2804,3212,21724,14102,941,-1444,2024-01-18 09:43:13,0.0
2596,3380,23732,15610,2317,-2954,2024-01-18 09:43:13,0.0
1256,3272,22808,17236,3902,-2008,2024-01-18 09:43:13,0.0
-448,3724,22180,18626,2940,398,2024-01-18 09:43:13,0.0
-1376,2916,20476,19493,1613,2574,2024-01-18 09:43:13,0.0
-12,3492,18552,19862,1242,3374,2024-01-18 09:43:13,0.0
1696,5972,16708,19868,1718,2600,2024-01-18 09:43:13,0.0
1880,7824,15916,19031,3002,1296,2024-01-18 09:43:13,0.0
2600,8916,18260,18698,4540,-774,2024-01-18 09:43:13,0.0
1584,7344,23368,20592,11831,-446,2024-01-18 09:43:13,0.0
544,5152,21948,23669,11065,1591,2024-01-18 09:43:13,0.0
-316,4304,14656,25306,4121,4164,2024-01-18 09:43:13,0.0
1172,6864,8308,22069,-2204,5583,2024-01-18 09:43:13,0.0
2132,11556,9548,18488,-1944,3922,2024-01-18 09:43:13,0.0
1384,11240,12948,17343,422,2872,2024-01-18 09:43:13,0.0
980,10008,15484,19259,3311,2626,2024-01-18 09:43:13,0.0
1924,8952,12428,20739,4846,3452,2024-01-18 09:43:13,0.0
6932,8480,10448,20247,1350,1159,2024-01-18 09:43:13,0.0
7244,8988,8732,19886,-1664,-3156,2024-01-18 09:43:13,0.0
2324,12796,6688,18267,-2043,-5821,2024-01-18 09:43:13,0.0
-2732,15876,8984,17089,-1153,-4920,2024-01-18 09:43:13,0.0
-3584,14360,11724,18302,1626,-1591,2024-01-18 09:43:13,0.0
740,9352,10680,19956,-545,1350,2024-01-18 09:43:13,0.0
3736,9880,6808,21021,-3333,1457,2024-01-18 09:43:13,0.0
2592,13792,4524,20399,-5389,-54,2024-01-18 09:43:13,0.0
936,15324,4560,19375,-3456,-1059,2024-01-18 09:43:13,0.0
1008,14716,6244,19818,-656,-1495,2024-01-18 09:43:13,0.0
1224,12844,5784,20819,-175,-1253,2024-01-18 09:43:13,0.0
3468,11480,2424,20592,-1518,-795,2024-01-18 09:43:13,0.0
4248,16084,-2888,17778,979,-1639,2024-01-18 09:43:13,0.0
2232,16784,-3384,14415,4077,-2662,2024-01-18 09:43:13,0.0
-2548,15328,2396,13597,7149,-1547,2024-01-18 09:43:13,0.0
-2952,15080,3932,15861,7093,748,2024-01-18 09:43:13,0.0
444,15592,4768,18600,6378,1823,2024-01-18 09:43:13,0.0
4324,12444,3668,20847,3011,851,2024-01-18 09:43:13,0.0
6616,10804,-1600,21056,-37,-1851,2024-01-18 09:43:13,0.0
3692,12132,-6648,18858,-830,-3526,2024-01-18 09:43:13,0.0
-308,14980,-7620,14998,1656,-2703,2024-01-18 09:43:13,0.0
-280,15248,-2788,14050,3306,-787,2024-01-18 09:43:13,0.0
312,13420,-1076,15412,4006,940,2024-01-18 09:43:13,0.0
704,11540,-3400,15932,1946,2727,2024-01-18 09:43:13,0.0
1432,12548,-6176,14425,-686,4087,2024-01-18 09:43:13,0.0
2876,14452,-5264,13575,-1318,3699,2024-01-18 09:43:13,0.0
4808,13124,-5692,13268,-3271,1515,2024-01-18 09:43:13,0.0
5136,12480,-6984,14294,-3244,-1375,2024-01-18 09:43:13,0.0
-2376,14148,-3140,16744,-18906,-5633,2024-01-18 09:43:13,0.0
4344,13196,-8352,10163,-4316,-7175,2024-01-18 09:43:14,0.0
-12,11508,-4260,11710,-4745,-6192,2024-01-18 09:43:14,0.0
-2308,12784,-2832,12985,-4447,-4123,2024-01-18 09:43:14,0.0
-3128,12096,-3716,16058,-5006,-2071,2024-01-18 09:43:14,0.0
-6484,11664,-7836,17781,-4407,538,2024-01-18 09:43:14,0.0
-7880,12112,-9824,17605,-2821,5088,2024-01-18 09:43:14,0.0
-6036,10864,-10964,16947,-3505,8565,2024-01-18 09:43:14,0.0
-3196,9252,-12040,15335,-4871,10278,2024-01-18 09:43:14,0.0
-556,10124,-12812,12271,-6400,10862,2024-01-18 09:43:14,0.0
2428,11064,-11852,10340,-6593,9935,2024-01-18 09:43:14,0.0
5304,10828,-9488,10177,-4008,6937,2024-01-18 09:43:14,0.0
1444,9464,-8900,9925,-611,5430,2024-01-18 09:43:14,
-3540,9432,-8704,11296,-1558,6873,2024-01-18 09:43:14,0.0
-2748,7484,-9496,12256,425,10009,2024-01-18 09:43:14,0.0
24,7164,-10544,12740,56,11833,2024-01-18 09:43:14,0.0
5668,6592,-9292,13895,-2393,9465,2024-01-18 09:43:14,0.0
7724,6828,-9876,15499,-3102,5016,2024-01-18 09:43:14,0.0
6128,7248,-11376,16275,-3268,854,2024-01-18 09:43:14,0.0
3508,7408,-13056,15846,-3161,-1432,2024-01-18 09:43:14,0.0
372,8316,-14124,14559,-2791,-1022,2024-01-18 09:43:14,0.0
-1156,7908,-14432,13106,-3831,1014,2024-01-18 09:43:14,0.0
-832,6180,-14800,11866,-3625,2975,2024-01-18 09:43:14,0.0
-328,4608,-15940,10141,-2663,4609,2024-01-18 09:43:14,0.0
1224,4148,-15760,7429,-1681,5846,2024-01-18 09:43:14,0.0
1496,5076,-15360,5491,-1784,5972,2024-01-18 09:43:14,0.0
2412,4484,-14688,4166,-2030,5174,2024-01-18 09:43:14,0.0
1800,3640,-13796,3896,-2555,3474,2024-01-18 09:43:14,0.0
1336,3064,-12388,4558,-1956,1594,2024-01-18 09:43:14,0.0
-8,3368,-12536,5489,-518,577,2024-01-18 09:43:14,0.0
-1720,3984,-13108,6010,923,706,2024-01-18 09:43:14,0.0
-1100,4340,-14328,6687,1411,1372,2024-01-18 09:43:14,0.0
-600,3404,-14956,6097,1228,1462,2024-01-18 09:43:14,0.0
-244,2684,-14340,5584,1854,1675,2024-01-18 09:43:14,0.0
516,1488,-14704,5472,2961,1754,2024-01-18 09:43:14,0.0
1000,2212,-14920,4757,2202,1361,2024-01-18 09:43:14,0.0
668,3112,-15952,3644,576,1226,2024-01-18 09:43:14,0.0
1652,2892,-15776,2580,806,1242,2024-01-18 09:43:14,0.0
2332,2380,-14944,2226,787,367,2024-01-18 09:43:14,0.0
2124,3156,-14420,2622,641,-684,2024-01-18 09:43:14,0.0
1400,3784,-14872,3212,-1053,-2349,2024-01-18 09:43:14,0.0
-156,4092,-16460,2366,-1223,-2797,2024-01-18 09:43:14,0.0
-1084,3572,-16772,302,1286,-2108,2024-01-18 09:43:14,0.0
-104,3680,-15832,-1529,3935,-1467,2024-01-18 09:43:14,0.0
-48,4668,-14520,-2718,5223,-1418,2024-01-18 09:43:14,0.0
612,6644,-13204,-2821,7534,-1638,2024-01-18 09:43:14,0.0
1764,4600,-12540,-800,9448,-3546,2024-01-18 09:43:14,0.0
2040,2860,-12932,388,10353,-5697,2024-01-18 09:43:14,0.0
1036,2552,-12532,289,10316,-6260,2024-01-18 09:43:14,0.0
60,4780,-12664,59,10426,-4945,2024-01-18 09:43:14,0.0
1512,5072,-13356,174,12158,-3327,2024-01-18 09:43:14,0.0
3452,3912,-13696,738,10280,-2414,2024-01-18 09:43:14,0.0
6160,2224,-14476,1960,5649,-311,2024-01-18 09:43:14,0.0
9584,1016,-16168,2761,-702,1793,2024-01-18 09:43:14,0.0
12120,-1364,-17528,3938,-7274,3126,2024-01-18 09:43:14,0.0
12848,-1848,-18884,4654,-9575,2291,2024-01-18 09:43:14,0.0
10700,756,-21068,4315,-8690,-1948,2024-01-18 09:43:14,0.0
5336,1560,-22244,2297,-4086,-6240,2024-01-18 09:43:14,0.0
-2052,1664,-20132,-407,-292,-8004,2024-01-18 09:43:14,0.0
-8944,2560,-16896,-2670,3798,-5237,2024-01-18 09:43:14,0.0
-7220,2908,-13792,-3522,7077,-525,2024-01-18 09:43:15,0.0
-5724,3144,-10064,-3406,8599,3001,2024-01-18 09:43:15,0.0
-2452,1796,-6512,-1213,9059,6044,2024-01-18 09:43:15,0.0
2648,260,-5936,1318,8900,7260,2024-01-18 09:43:15,0.0
5476,24,-7180,2932,6908,6847,2024-01-18 09:43:15,0.0
8776,712,-9548,4159,2652,4907,2024-01-18 09:43:15,0.0
9712,324,-10668,4361,-1247,2071,2024-01-18 09:43:15,0.0
7576,1224,-11680,4163,-5109,113,2024-01-18 09:43:15,0.0
5640,864,-12288,3895,-6601,-417,2024-01-18 09:43:15,0.0
3340,1288,-14176,2839,-8576,-316,2024-01-18 09:43:15,0.0
1676,652,-15712,1813,-5643,726,2024-01-18 09:43:15,0.0
92,328,-16264,1044,-1367,1832,2024-01-18 09:43:15,0.0
-576,1976,-17964,-197,2699,3214,2024-01-18 09:43:15,0.0
1652,1920,-19448,-1710,3083,3875,2024-01-18 09:43:15,0.0
4340,1800,-18764,-3357,2683,2857,2024-01-18 09:43:15,0.0
4872,2132,-16132,-3270,325,1769,2024-01-18 09:43:15,0.0
6328,2372,-16072,-1933,-2366,232,2024-01-18 09:43:15,0.0
6724,2104,-16508,-1184,-2837,-1573,2024-01-18 09:43:15,0.0
4972,2068,-16796,-778,-2099,-3257,2024-01-18 09:43:15,0.0
3004,2616,-17332,-1446,-1219,-3101,2024-01-18 09:43:15,0.0
1560,2924,-16636,-2432,1343,-1143,2024-01-18 09:43:15,0.0
1504,2992,-15264,-2414,3548,1034,2024-01-18 09:43:15,0.0
3572,3012,-14540,-1753,4190,2189,2024-01-18 09:43:15,0.0
5624,3164,-14000,-671,3281,2035,2024-01-18 09:43:15,0.0
6980,2768,-14108,-44,1672,867,2024-01-18 09:43:15,0.0
6544,2236,-14524,-136,-40,-769,2024-01-18 09:43:15,0.0
5236,2220,-13956,-456,-1421,-1553,2024-01-18 09:43:15,0.0
4152,2004,-13028,-308,-2187,-1624,2024-01-18 09:43:15,0.0
3208,1616,-13164,13,-2476,-1409,2024-01-18 09:43:15,0.0
2896,1308,-13888,-218,-2355,-1152,2024-01-18 09:43:15,0.0
2532,1844,-14104,-544,-1917,-959,2024-01-18 09:43:15,0.0
2428,1776,-14464,-840,-1623,-837,2024-01-18 09:43:15,0.0
2520,2192,-14800,-1260,-1031,-354,2024-01-18 09:43:15,0.0
3052,1940,-14504,-1497,-273,-18,2024-01-18 09:43:15,0.0
3768,2424,-14304,-1181,-665,-217,2024-01-18 09:43:15,0.0
4248,2516,-14680,-706,-1016,-807,2024-01-18 09:43:15,0.0
3724,2508,-15200,-435,-1097,-1428,2024-01-18 09:43:15,0.0
1796,2440,-15532,-557,-333,-1002,2024-01-18 09:43:15,0.0
1148,2136,-15856,-849,324,194,2024-01-18 09:43:15,0.0
1508,2460,-14996,-1251,1325,1473,2024-01-18 09:43:15,0.0
2696,2592,-14224,-1192,1238,2019,2024-01-18 09:43:15,0.0
3972,2596,-13448,-754,1782,1952,2024-01-18 09:43:15,0.0
4332,2480,-13316,-80,1977,1396,2024-01-18 09:43:15,0.0
3376,2364,-13884,239,1780,1029,2024-01-18 09:43:15,0.0
3220,2680,-14456,73,1640,894,2024-01-18 09:43:15,0.0
3608,2692,-14364,-26,1401,642,2024-01-18 09:43:15,0.0
3776,2296,-14336,-80,1304,204,2024-01-18 09:43:15,0.0
3816,2172,-14640,-159,1140,-249,2024-01-18 09:43:15,0.0
3660,1992,-14628,-418,1046,-536,2024-01-18 09:43:15,0.0
3524,2364,-14380,-589,990,-445,2024-01-18 09:43:15,0.0
4056,2860,-14232,-439,659,-406,2024-01-18 09:43:15,0.0
4160,2788,-14656,-301,358,-554,2024-01-18 09:43:15,0.0
3536,2468,-15136,-337,220,-599,2024-01-18 09:43:15,
3044,2244,-15332,-644,280,-266,2024-01-18 09:43:15,0.0
2992,2332,-15096,-1005,575,151,2024-01-18 09:43:15,0.0
3536,2532,-14472,-973,714,418,2024-01-18 09:43:15,0.0
4048,2876,-13976,-400,554,105,2024-01-18 09:43:15,0.0
3828,2564,-13972,8,160,-321,2024-01-18 09:43:15,0.0
3408,2764,-13992,264,44,-263,2024-01-18 09:43:15,0.0
4084,2692,-14176,506,57,-299,2024-01-18 09:43:15,0.0
4196,2404,-14532,351,402,-662,2024-01-18 09:43:16,0.0
3752,2104,-14596,133,639,-659,2024-01-18 09:43:16,0.0
4024,2176,-14716,-218,402,-746,2024-01-18 09:43:16,0.0
3860,2104,-14488,-518,554,-778,2024-01-18 09:43:16,0.0
3756,2252,-14264,-629,357,-710,2024-01-18 09:43:16,0.0
3584,2348,-13932,-528,237,-679,2024-01-18 09:43:16,0.0
3696,2460,-13808,-282,159,-676,2024-01-18 09:43:16,0.0
4012,2844,-14092,113,-157,-787,2024-01-18 09:43:16,0.0
3504,2184,-14584,23,-327,-727,2024-01-18 09:43:16,0.0
3240,2336,-14492,-332,-173,-236,2024-01-18 09:43:16,0.0
3464,2576,-14500,-415,-394,52,2024-01-18 09:43:16,0.0
3900,2704,-14348,-458,-817,-76,2024-01-18 09:43:16,0.0
3952,2572,-14312,-435,-1185,-378,2024-01-18 09:43:16,0.0
2860,2728,-13984,-317,-1720,-82,2024-01-18 09:43:16,0.0
2940,2836,-13716,168,-1799,832,2024-01-18 09:43:16,0.0
3896,2684,-13860,605,-1165,1035,2024-01-18 09:43:16,0.0
4244,2296,-14688,814,-778,574,2024-01-18 09:43:16,0.0
3948,2356,-15220,434,-230,120,2024-01-18 09:43:16,0.0
3976,2532,-15084,148,69,-86,2024-01-18 09:43:16,0.0
3792,2344,-15104,-93,192,-442,2024-01-18 09:43:16,0.0
3376,2216,-14952,-413,350,-555,2024-01-18 09:43:16,0.0
2948,2640,-14264,-533,265,-248,2024-01-18 09:43:16,0.0
3004,2592,-13932,-245,466,251,2024-01-18 09:43:16,0.0
3240,2488,-14008,84,264,362,2024-01-18 09:43:16,0.0
3776,2352,-14544,81,162,95,2024-01-18 09:43:16,0.0
3696,2404,-14676,-33,101,-228,2024-01-18 09:43:16,0.0
3408,2492,-14612,-256,140,-506,2024-01-18 09:43:16,0.0
2916,2504,-14448,-244,73,-367,2024-01-18 09:43:16,0.0
3168,2364,-14356,-166,113,-193,2024-01-18 09:43:16,0.0
3216,2220,-14432,-224,294,-263,2024-01-18 09:43:16,0.0
2968,2380,-14468,-357,509,-235,2024-01-18 09:43:16,0.0
2980,2536,-14244,-247,260,-107,2024-01-18 09:43:16,0.0
3472,2208,-14528,-288,177,-117,2024-01-18 09:43:16,0.0
3868,2332,-14336,-577,143,-229,2024-01-18 09:43:16,0.0
3792,2844,-14200,-582,-353,-259,2024-01-18 09:43:16,0.0
3668,2724,-14468,-596,-463,-183,2024-01-18 09:43:16,0.0
3360,2452,-14288,-529,-525,-98,2024-01-18 09:43:16,0.0
3672,2064,-14444,-478,-339,-343,2024-01-18 09:43:16,0.0
3424,2092,-14440,-632,-293,-701,2024-01-18 09:43:16,0.0
3012,2700,-14140,-531,43,-664,2024-01-18 09:43:16,0.0
3020,2736,-14120,-275,-117,-517,2024-01-18 09:43:16,0.0
2604,2668,-14412,-202,28,-198,2024-01-18 09:43:16,0.0
3108,2608,-14492,-99,153,211,2024-01-18 09:43:16,0.0
3412,2504,-14612,-171,200,178,2024-01-18 09:43:16,0.0
3452,2328,-14748,-332,346,75,2024-01-18 09:43:16,0.0
3392,2488,-14684,-568,204,-195,2024-01-18 09:43:16,0.0
3268,2500,-14552,-743,143,-154,2024-01-18 09:43:16,0.0
3352,2308,-14300,-896,67,-141,2024-01-18 09:43:16,0.0
3860,2624,-14064,-950,24,-176,2024-01-18 09:43:16,0.0
3832,2528,-14160,-980,-262,-405,2024-01-18 09:43:16,0.0
3412,2756,-14172,-1007,-169,-324,2024-01-18 09:43:16,0.0
3308,2800,-14100,-787,-34,-174,2024-01-18 09:43:16,0.0
3112,2976,-14132,-462,-115,-43,2024-01-18 09:43:16,0.0
3244,2776,-14412,-205,-213,15,2024-01-18 09:43:16,0.0
3176,2860,-14592,-172,-149,47,2024-01-18 09:43:16,0.0
2924,2912,-14888,-262,-54,54,2024-01-18 09:43:16,0.0
3212,2916,-14472,-324,-44,-64,2024-01-18 09:43:16,0.0
3240,2864,-14312,-204,-100,-328,2024-01-18 09:43:16,0.0
2496,2984,-14300,-111,-2,-399,2024-01-18 09:43:16,0.0
2384,2932,-14248,79,45,-125,2024-01-18 09:43:16,0.0
2596,2732,-14524,39,277,100,2024-01-18 09:43:17,0.0
2892,2328,-14432,-124,665,139,2024-01-18 09:43:17,0.0
3260,2624,-14392,-221,755,-83,2024-01-18 09:43:17,0.0
3136,2644,-14604,-320,650,-240,2024-01-18 09:43:17,0.0
3344,2800,-14508,-388,645,-324,2024-01-18 09:43:17,0.0
3368,2808,-14364,-348,455,-543,2024-01-18 09:43:17,0.0
3252,3000,-14292,-150,193,-414,2024-01-18 09:43:17,0.0
3280,2792,-14452,11,89,-254,2024-01-18 09:43:17,0.0
3192,2284,-14904,-255,352,-261,2024-01-18 09:43:17,0.0
3100,2516,-14852,-704,621,-202,2024-01-18 09:43:17,0.0
3360,3464,-13812,-551,588,-1,2024-01-18 09:43:17,0.0
3528,3136,-14056,-92,295,-40,2024-01-18 09:43:17,0.0
3584,2664,-14444,-60,266,-238,2024-01-18 09:43:17,0.0
3520,2912,-14424,-216,182,-352,2024-01-18 09:43:17,0.0
3248,2648,-14348,-244,9,-404,2024-01-18 09:43:17,0.0
3080,2476,-14408,-275,52,-465,2024-01-18 09:43:17,0.0
2908,2716,-14112,-243,387,-308,2024-01-18 09:43:17,0.0
3136,2848,-14132,-122,166,-230,2024-01-18 09:43:17,0.0
3148,2896,-14376,-186,233,-39,2024-01-18 09:43:17,0.0
3504,2532,-14580,-401,283,-85,2024-01-18 09:43:17,0.0
3512,2608,-14296,-720,412,-298,2024-01-18 09:43:17,0.0
3128,2852,-13892,-688,453,-266,2024-01-18 09:43:17,0.0
3156,2856,-14064,-446,377,-216,2024-01-18 09:43:17,0.0
3440,2840,-14252,-193,387,-192,2024-01-18 09:43:17,0.0
3460,2684,-14712,-193,459,-186,2024-01-18 09:43:17,0.0
3200,2596,-14532,-427,728,-87,2024-01-18 09:43:17,0.0
3288,2848,-14248,-557,903,181,2024-01-18 09:43:17,0.0
3392,2864,-13924,-444,1159,292,2024-01-18 09:43:17,0.0
3708,2684,-13820,-259,1012,215,2024-01-18 09:43:17,0.0
3592,2736,-14264,-369,1038,74,2024-01-18 09:43:17,0.0
3580,3048,-14172,-349,1043,116,2024-01-18 09:43:17,0.0
3732,2916,-14096,-235,749,7,2024-01-18 09:43:17,0.0
3492,2876,-14460,-161,950,-19,2024-01-18 09:43:17,
3256,3060,-14364,-50,1064,150,2024-01-18 09:43:17,0.0
3272,3176,-14624,-6,1263,333,2024-01-18 09:43:17,0.0
3364,3208,-14648,30,1096,367,2024-01-18 09:43:17,0.0
3880,3096,-14604,-97,1020,251,2024-01-18 09:43:17,0.0
3880,2876,-14352,0,1020,83,2024-01-18 09:43:17,0.0
3636,2940,-14132,101,779,-46,2024-01-18 09:43:17,0.0
3616,2896,-14324,118,845,13,2024-01-18 09:43:17,0.0
3732,2984,-14172,196,1137,28,2024-01-18 09:43:17,0.0
3828,2760,-14088,382,902,-199,2024-01-18 09:43:17,0.0
3520,2760,-14012,375,1315,-63,2024-01-18 09:43:17,0.0
3772,2772,-14224,480,1174,-4,2024-01-18 09:43:17,0.0
3912,2940,-14440,436,1301,-14,2024-01-18 09:43:17,0.0
3892,2936,-14324,445,1457,60,2024-01-18 09:43:17,0.0
3936,2692,-14316,537,1976,88,2024-01-18 09:43:17,0.0
3364,2620,-13480,1481,3475,197,2024-01-18 09:43:17,0.0
3052,2800,-13860,2479,4420,652,2024-01-18 09:43:17,0.0
3356,2448,-13660,3412,6952,1452,2024-01-18 09:43:17,0.0
4016,2364,-14332,3520,10395,2455,2024-01-18 09:43:17,0.0
4812,1988,-13736,4356,17855,3654,2024-01-18 09:43:17,0.0
6192,1564,-13548,5146,22046,3945,2024-01-18 09:43:17,0.0
7188,324,-13008,5270,26824,3745,2024-01-18 09:43:17,0.0
7756,1032,-12764,4952,27536,3747,2024-01-18 09:43:17,0.0
7932,1516,-11800,5238,26343,4491,2024-01-18 09:43:17,0.0
8680,976,-11548,5970,21963,5165,2024-01-18 09:43:17,0.0
10564,-420,-11464,6665,17427,5044,2024-01-18 09:43:17,0.0
12816,-796,-11760,6514,13929,3433,2024-01-18 09:43:17,0.0
14236,-192,-12152,6517,11124,1232,2024-01-18 09:43:17,0.0
13568,708,-13988,5508,6794,-356,2024-01-18 09:43:18,0.0
11328,824,-15092,2818,4844,-248,2024-01-18 09:43:18,0.0
10312,164,-13548,539,3318,1088,2024-01-18 09:43:18,0.0
14820,-1328,-10284,549,303,328,2024-01-18 09:43:18,0.0
17108,-1304,-9564,1347,-1089,-2647,2024-01-18 09:43:18,0.0
12752,-244,-11072,2441,-3505,-4521,2024-01-18 09:43:18,0.0
8968,1260,-13888,1943,-2141,-2945,2024-01-18 09:43:18,0.0
9184,812,-14608,735,-639,-263,2024-01-18 09:43:18,0.0
12116,-128,-13064,107,-544,-133,2024-01-18 09:43:18,0.0
13888,-1360,-11904,299,-3269,-2089,2024-01-18 09:43:18,0.0
12928,-1428,-11532,123,-4067,-3642,2024-01-18 09:43:18,0.0
11780,692,-11796,-159,-4236,-3812,2024-01-18 09:43:18,0.0
12084,708,-10692,342,-3733,-3513,2024-01-18 09:43:18,0.0
12020,-856,-10192,1217,-5222,-4236,2024-01-18 09:43:18,0.0
11876,-1516,-10280,1507,-6433,-5471,2024-01-18 09:43:18,0.0
11980,-1740,-10120,1690,-8559,-7117,2024-01-18 09:43:18,0.0
12120,-460,-10916,1565,-10022,-8525,2024-01-18 09:43:18,0.0
10384,-92,-10744,1403,-12340,-8447,2024-01-18 09:43:18,0.0
9776,1272,-11324,1321,-13254,-7657,2024-01-18 09:43:18,0.0
9828,440,-12380,1843,-14995,-7384,2024-01-18 09:43:18,0.0
9696,44,-13888,1229,-14946,-8042,2024-01-18 09:43:18,0.0
8448,120,-15540,459,-10484,-8922,2024-01-18 09:43:18,0.0
7280,64,-15712,-156,-7405,-9544,2024-01-18 09:43:18,0.0
6200,1272,-15572,-828,-5976,-9051,2024-01-18 09:43:18,0.0
4672,2072,-15808,-1435,-4251,-6850,2024-01-18 09:43:18,0.0
5116,1700,-15500,-1738,-4404,-4661,2024-01-18 09:43:18,0.0
6820,1008,-15880,-2458,-3250,-3814,2024-01-18 09:43:18,0.0
8976,636,-15488,-2322,-2365,-4729,2024-01-18 09:43:18,0.0
9320,748,-15576,-2697,-3540,-7038,2024-01-18 09:43:18,0.0
8692,1620,-14960,-3507,-3472,-8980,2024-01-18 09:43:18,0.0
8152,1244,-13352,-3867,-5499,-10121,2024-01-18 09:43:18,0.0
6776,1048,-12856,-3913,-6038,-10265,2024-01-18 09:43:18,0.0
5248,1168,-12620,-3847,-6599,-10058,2024-01-18 09:43:18,0.0
4584,2128,-13528,-3597,-8175,-9938,2024-01-18 09:43:18,0.0
2764,2528,-14836,-4402,-7610,-9241,2024-01-18 09:43:18,0.0
1448,2816,-15248,-5283,-7720,-7795,2024-01-18 09:43:18,0.0
1000,2748,-15800,-6259,-6939,-6688,2024-01-18 09:43:18,0.0
544,3260,-17264,-7332,-8341,-5088,2024-01-18 09:43:18,0.0
-28,2764,-16976,-9226,-9974,-3312,2024-01-18 09:43:18,0.0
1292,2216,-16176,-11044,-13243,-1552,2024-01-18 09:43:18,0.0
2580,3092,-15088,-13122,-12065,-557,2024-01-18 09:43:18,0.0
1796,3988,-14008,-12673,-4549,-239,2024-01-18 09:43:18,0.0
2196,3100,-12756,-10007,1045,-1043,2024-01-18 09:43:18,0.0
1820,2196,-12356,-7676,3655,-2228,2024-01-18 09:43:18,0.0
1016,2408,-12628,-6053,4529,-3148,2024-01-18 09:43:18,0.0
128,5804,-12896,-4827,2687,-2900,2024-01-18 09:43:18,0.0
-820,8064,-13680,-4892,-750,-1490,2024-01-18 09:43:18,0.0
-420,8768,-13692,-4770,-1932,629,2024-01-18 09:43:18,0.0
1740,7108,-12840,-4538,-3723,1957,2024-01-18 09:43:18,0.0
3760,6188,-12976,-4047,-3549,1770,2024-01-18 09:43:18,0.0
4112,5428,-13392,-4085,-3025,862,2024-01-18 09:43:18,0.0
2636,5904,-13756,-4772,-2748,588,2024-01-18 09:43:18,0.0
1552,7232,-13200,-5360,-2144,1261,2024-01-18 09:43:18,0.0
1048,8376,-12964,-5452,-1965,1943,2024-01-18 09:43:18,0.0
2492,7876,-13008,-5090,-1176,2049,2024-01-18 09:43:18,0.0
2992,6492,-13028,-5062,-548,1358,2024-01-18 09:43:18,0.0
2320,6704,-13424,-5370,-1116,781,2024-01-18 09:43:18,0.0
2320,7916,-14864,-6775,-3456,129,2024-01-18 09:43:18,0.0
3516,9708,-15012,-8156,-3975,-914,2024-01-18 09:43:18,0.0
3600,10864,-13624,-9172,-4848,-2420,2024-01-18 09:43:18,0.0
4528,10744,-11960,-8687,-5301,-4020,2024-01-18 09:43:19,0.0
5704,9776,-10832,-7801,-7800,-6446,2024-01-18 09:43:19,0.0
4404,10284,-11096,-7274,-8633,-8492,2024-01-18 09:43:19,0.0
352,10904,-10904,-6129,-7917,-9556,2024-01-18 09:43:19,0.0
-2692,11452,-10280,-5073,-7147,-8686,2024-01-18 09:43:19,0.0
-1956,11776,-9092,-3019,-5606,-7314,2024-01-18 09:43:19,0.0
-1136,11828,-8552,-472,-2744,-6898,2024-01-18 09:43:19,0.0
-400,10068,-8180,3516,283,-7387,2024-01-18 09:43:19,0.0
-3044,8696,-7680,7066,2860,-6885,2024-01-18 09:43:19,0.0
-4084,7856,-8592,9841,3253,-4904,2024-01-18 09:43:19,0.0
-3668,8120,-9344,12195,5713,-2583,2024-01-18 09:43:19,0.0
-1896,7180,-9560,14253,7581,-1296,2024-01-18 09:43:19,0.0
1156,5104,-10580,16382,11710,598,2024-01-18 09:43:19,
4,4152,-12028,17911,18419,2762,2024-01-18 09:43:19,0.0
-748,3844,-13228,17681,19801,5261,2024-01-18 09:43:19,0.0
2676,2912,-12940,16598,19280,5789,2024-01-18 09:43:19,0.0
3608,3376,-14420,14380,15554,4460,2024-01-18 09:43:19,0.0
3436,3888,-15864,10438,11075,3793,2024-01-18 09:43:19,0.0
3036,4164,-16804,6718,8073,3475,2024-01-18 09:43:19,0.0
4220,3660,-15876,3790,4982,3092,2024-01-18 09:43:19,0.0
5308,3068,-14848,2736,3218,1214,2024-01-18 09:43:19,0.0
5628,2480,-14432,2431,1082,-1244,2024-01-18 09:43:19,0.0
4300,2068,-15496,1179,-1437,-3153,2024-01-18 09:43:19,0.0
2564,2948,-16664,-1821,-3660,-3241,2024-01-18 09:43:19,0.0
1812,4920,-15852,-4134,-2956,-2119,2024-01-18 09:43:19,0.0
2488,4028,-13868,-4817,-2071,-1428,2024-01-18 09:43:19,0.0
3392,2280,-13016,-5255,-2420,-1185,2024-01-18 09:43:19,0.0
3112,1728,-13724,-6558,-5122,-1614,2024-01-18 09:43:19,0.0
1544,2316,-14284,-8896,-8909,-1231,2024-01-18 09:43:19,0.0
1080,2984,-13928,-10773,-10895,294,2024-01-18 09:43:19,0.0
2088,3524,-12072,-11120,-8327,1883,2024-01-18 09:43:19,0.0
4220,4044,-9636,-7864,-2084,1294,2024-01-18 09:43:19,0.0
3632,3308,-8900,-4410,535,-669,2024-01-18 09:43:19,0.0
3244,3612,-10880,-1940,1794,-2257,2024-01-18 09:43:19,0.0
2468,3512,-12496,-1187,904,-3762,2024-01-18 09:43:19,0.0
1176,4312,-13960,-2294,-470,-4137,2024-01-18 09:43:19,0.0
1560,5436,-13256,-2833,-1094,-4676,2024-01-18 09:43:19,0.0
1344,6856,-13080,-2486,-1034,-6128,2024-01-18 09:43:19,0.0
260,6968,-13560,-1898,-1026,-7141,2024-01-18 09:43:19,0.0
420,7472,-14524,-1462,3481,-6949,2024-01-18 09:43:19,0.0
-584,7348,-15132,-996,7878,-6329,2024-01-18 09:43:19,0.0
-3144,6260,-13628,-126,10573,-4883,2024-01-18 09:43:19,0.0
-3876,6940,-13696,419,11358,-2427,2024-01-18 09:43:19,0.0
-3384,6624,-13336,964,11464,791,2024-01-18 09:43:19,0.0
-1040,6592,-14176,686,11840,4017,2024-01-18 09:43:19,0.0
808,7020,-14732,-440,11301,5879,2024-01-18 09:43:19,0.0
2724,7468,-15124,-2025,12110,7139,2024-01-18 09:43:19,0.0
4264,7384,-13488,-2889,12903,6587,2024-01-18 09:43:19,0.0
4436,6960,-12004,-2655,11119,5394,2024-01-18 09:43:19,0.0
6212,8452,-9232,-2073,11841,4415,2024-01-18 09:43:19,0.0
6168,8116,-16776,9925,2022,2543,2024-01-18 09:43:19,0.0
4740,7960,-17372,4471,3559,3058,2024-01-18 09:43:19,0.0
6356,6052,-15024,2369,4497,3602,2024-01-18 09:43:19,0.0
4148,4800,-12772,812,2698,4184,2024-01-18 09:43:19,0.0
2660,3908,-11496,1618,4308,5892,2024-01-18 09:43:19,0.0
4100,3772,-13576,2825,6805,7990,2024-01-18 09:43:19,0.0
16616,5532,-19296,756,8002,5277,2024-01-18 09:43:19,0.0
11752,6376,-17580,-4511,6519,-3005,2024-01-18 09:43:19,0.0
4480,5988,-10868,-4936,3962,-2205,2024-01-18 09:43:19,0.0
4832,5540,-8872,-2113,4757,-383,2024-01-18 09:43:19,0.0
5588,5644,-10340,-135,3434,1105,2024-01-18 09:43:20,0.0
6024,5556,-10296,1216,3205,2356,2024-01-18 09:43:20,0.0
6880,4872,-13380,822,2313,3629,2024-01-18 09:43:20,0.0
7916,5008,-14800,-760,3049,3944,2024-01-18 09:43:20,0.0
9088,5076,-14356,-1999,3331,2733,2024-01-18 09:43:20,0.0
8840,5888,-12740,-2164,3895,796,2024-01-18 09:43:20,0.0
8152,6744,-11572,-963,3018,-514,2024-01-18 09:43:20,0.0
7636,6216,-11356,314,2407,-838,2024-01-18 09:43:20,0.0
7692,5688,-11356,976,1806,-434,2024-01-18 09:43:20,0.0
7100,5592,-11212,1586,1408,836,2024-01-18 09:43:20,0.0
7656,5924,-12884,1460,1169,1797,2024-01-18 09:43:20,0.0
7220,5980,-14020,101,1724,2726,2024-01-18 09:43:20,0.0
8276,5812,-12892,-461,806,2564,2024-01-18 09:43:20,0.0
8452,5732,-13264,-709,1058,1866,2024-01-18 09:43:20,0.0
8392,5328,-12556,-567,1098,1199,2024-01-18 09:43:20,0.0
8280,5260,-12520,-309,1156,408,2024-01-18 09:43:20,0.0
7792,4924,-12280,-19,919,211,2024-01-18 09:43:20,0.0
8472,4860,-12404,-49,391,195,2024-01-18 09:43:20,0.0
7700,4952,-12424,-345,855,540,2024-01-18 09:43:20,0.0
8156,5028,-11872,-168,965,811,2024-01-18 09:43:20,0.0
8432,5200,-12788,-750,1019,1092,2024-01-18 09:43:20,0.0
6516,5144,-13932,-224,1144,3113,2024-01-18 09:43:20,0.0
7336,5028,-13392,-1582,1272,3805,2024-01-18 09:43:20,0.0
9500,5284,-14464,-3150,977,3646,2024-01-18 09:43:20,0.0
11004,5500,-12792,-4271,844,2342,2024-01-18 09:43:20,0.0
10384,4960,-11344,-3635,1060,719,2024-01-18 09:43:20,0.0
9044,4504,-13668,-4241,18,-124,2024-01-18 09:43:20,0.0
6928,4916,-15636,-8160,-1181,887,2024-01-18 09:43:20,0.0
6884,5736,-12660,-9970,-1400,2078,2024-01-18 09:43:20,0.0
7708,5956,-11156,-9679,-1069,2871,2024-01-18 09:43:20,0.0
7240,5872,-10556,-8881,1005,4027,2024-01-18 09:43:20,0.0
8384,5240,-10776,-7960,2231,4849,2024-01-18 09:43:20,0.0
8664,5500,-11824,-7912,3091,4769,2024-01-18 09:43:20,0.0
9052,6500,-11812,-8356,2816,4239,2024-01-18 09:43:20,0.0
8316,7556,-11288,-8101,2702,3691,2024-01-18 09:43:20,0.0
9840,8884,-10712,-7480,2204,3097,2024-01-18 09:43:20,0.0
9508,9076,-9900,-5887,2678,1711,2024-01-18 09:43:20,0.0
7640,8220,-10380,-5047,2837,2680,2024-01-18 09:43:20,0.0
9960,7780,-10888,-4771,3741,3323,2024-01-18 09:43:20,0.0
10828,7584,-10120,-4724,3642,2834,2024-01-18 09:43:20,0.0
11360,7244,-9396,-4446,3057,1405,2024-01-18 09:43:20,0.0
9892,7580,-10428,-4847,2948,1497,2024-01-18 09:43:20,0.0
10392,8872,-9424,-4823,2167,684,2024-01-18 09:43:20,0.0
9708,8764,-8848,-4167,2113,415,2024-01-18 09:43:20,0.0
9708,8564,-8516,-3534,3015,1411,2024-01-18 09:43:20,0.0
10168,8048,-8024,-3148,3447,2696,2024-01-18 09:43:20,0.0
10816,8120,-7876,-2586,2885,3485,2024-01-18 09:43:20,0.0
10504,8556,-6248,-826,3590,3491,2024-01-18 09:43:20,0.0
10148,8840,-9128,1554,4713,3691,2024-01-18 09:43:20,0.0
11704,8516,-11000,1330,6481,3642,2024-01-18 09:43:20,0.0
11528,7700,-9124,772,7566,3016,2024-01-18 09:43:20,0.0
6596,8512,-8596,2860,12771,5562,2024-01-18 09:43:20,0.0
16376,8492,-11404,223,7943,5364,2024-01-18 09:43:20,
16016,7088,-8436,-565,5738,1688,2024-01-18 09:43:20,0.0
13596,6432,-8352,-482,5252,39,2024-01-18 09:43:20,0.0
12616,6656,-9496,-858,4582,-726,2024-01-18 09:43:20,0.0
12080,7444,-9412,-2058,4133,-749,2024-01-18 09:43:20,0.0
11520,7572,-9512,-2652,4252,-175,2024-01-18 09:43:20,0.0
11996,8328,-9348,-3430,5244,369,2024-01-18 09:43:20,0.0
12600,7228,-8104,-3853,6226,-1,2024-01-18 09:43:20,0.0
12592,6904,-7652,-3897,6371,134,2024-01-18 09:43:20,0.0
15376,7660,-3168,-181,4947,-1365,2024-01-18 09:43:21,0.0
15636,9144,-5352,1208,2708,-2910,2024-01-18 09:43:21,0.0
14288,9056,-6724,1691,1137,-3442,2024-01-18 09:43:21,0.0
13848,8236,-8220,1346,260,-3990,2024-01-18 09:43:21,0.0
12660,7596,-6632,1091,-172,-4180,2024-01-18 09:43:21,0.0
12152,8460,-7240,2587,-240,-1832,2024-01-18 09:43:21,0.0
14344,8336,-7140,455,662,-2381,2024-01-18 09:43:21,0.0
13124,8300,-7156,831,284,-1877,2024-01-18 09:43:21,0.0
12852,8296,-6956,844,518,-1443,2024-01-18 09:43:21,0.0
13100,8464,-6768,970,588,-745,2024-01-18 09:43:21,0.0
13632,8364,-7232,772,146,-699,2024-01-18 09:43:21,0.0
13876,7992,-6724,384,-692,-1045,2024-01-18 09:43:21,0.0
12276,7736,-6408,366,-1283,-1109,2024-01-18 09:43:21,0.0
10384,7580,-7576,-340,-443,303,2024-01-18 09:43:21,0.0
10788,7552,-7192,-102,1038,1894,2024-01-18 09:43:21,0.0
15280,7936,-6136,1523,1318,1127,2024-01-18 09:43:21,0.0
13020,8076,-8208,1623,838,-32,2024-01-18 09:43:21,0.0
13084,7616,-7804,1411,598,-144,2024-01-18 09:43:21,0.0
13296,7560,-7652,1442,248,-485,2024-01-18 09:43:21,0.0
13344,8124,-8920,1227,120,-806,2024-01-18 09:43:21,0.0
12228,8028,-7836,1030,618,-784,2024-01-18 09:43:21,0.0
11656,7732,-7980,1285,1675,17,2024-01-18 09:43:21,0.0
12072,7756,-8308,963,1698,699,2024-01-18 09:43:21,0.0
13052,7760,-7888,950,1552,780,2024-01-18 09:43:21,0.0
13520,7956,-7680,1013,1432,822,2024-01-18 09:43:21,0.0
14012,7988,-7796,854,1153,273,2024-01-18 09:43:21,0.0
14440,8212,-8212,503,969,-584,2024-01-18 09:43:21,0.0
14176,7928,-8156,245,921,-1381,2024-01-18 09:43:21,0.0
13764,7512,-7936,1,689,-1746,2024-01-18 09:43:21,0.0
12764,7496,-8116,-472,730,-1540,2024-01-18 09:43:21,0.0
10956,7372,-7648,-571,1621,-138,2024-01-18 09:43:21,0.0
12292,7516,-6888,-289,2216,1663,2024-01-18 09:43:21,0.0
14100,8132,-7232,-70,1471,1255,2024-01-18 09:43:21,0.0
14484,8260,-7520,-36,790,359,2024-01-18 09:43:21,0.0
14328,7756,-7724,-129,488,-491,2024-01-18 09:43:21,0.0
14180,7672,-7592,-290,87,-1175,2024-01-18 09:43:21,0.0
13576,7804,-7356,-389,-102,-1539,2024-01-18 09:43:21,0.0
13012,7896,-7484,-178,-66,-1587,2024-01-18 09:43:21,0.0
11860,7452,-6612,157,284,-535,2024-01-18 09:43:21,0.0
12192,7596,-6784,378,747,747,2024-01-18 09:43:21,0.0
13372,7704,-7108,543,647,985,2024-01-18 09:43:21,0.0
13948,7948,-7716,488,798,602,2024-01-18 09:43:21,0.0
14612,7872,-7996,-155,-18,-369,2024-01-18 09:43:21,0.0
13656,7924,-7928,-392,-116,-1004,2024-01-18 09:43:21,0.0
11908,7892,-7492,-264,853,-665,2024-01-18 09:43:21,0.0
12220,7788,-7148,346,1436,301,2024-01-18 09:43:21,0.0
13084,7588,-7068,554,1478,804,2024-01-18 09:43:21,0.0
14156,7144,-7280,391,872,738,2024-01-18 09:43:21,0.0
14208,7180,-7064,221,526,341,2024-01-18 09:43:21,0.0
14260,7580,-7432,8,231,-575,2024-01-18 09:43:21,0.0
13448,7948,-8324,-248,842,-940,2024-01-18 09:43:21,0.0
11744,7948,-7592,-450,1343,128,2024-01-18 09:43:21,0.0
12256,7612,-6680,-194,2339,1655,2024-01-18 09:43:21,0.0
14064,7376,-6628,243,2318,1916,2024-01-18 09:43:21,0.0
14476,7444,-7104,371,1865,1497,2024-01-18 09:43:21,0.0
14732,7124,-7328,256,1449,670,2024-01-18 09:43:21,0.0
14388,7804,-7008,324,1126,-97,2024-01-18 09:43:21,0.0
14028,7544,-7336,172,1031,-309,2024-01-18 09:43:21,0.0
12580,7780,-7044,214,1042,152,2024-01-18 09:43:21,0.0
13072,7620,-7256,276,1001,1107,2024-01-18 09:43:21,0.0
14688,7636,-7316,-40,556,1152,2024-01-18 09:43:22,0.0
14908,7236,-7372,-384,565,724,2024-01-18 09:43:22,0.0
13760,7192,-7208,-517,709,685,2024-01-18 09:43:22,0.0
13720,7412,-6876,-252,840,513,2024-01-18 09:43:22,0.0
13728,7148,-7212,-46,991,505,2024-01-18 09:43:22,0.0
13152,6952,-7104,-84,1515,1182,2024-01-18 09:43:22,0.0
14716,7316,-7056,226,1044,1191,2024-01-18 09:43:22,0.0
14968,7496,-6688,308,-553,549,2024-01-18 09:43:22,0.0
25800,6220,4576,4098,-9854,-3488,2024-01-18 09:43:22,0.0
20200,9020,-13972,345,-9769,-13498,2024-01-18 09:43:22,0.0
6380,8144,-6776,69,-6871,-8857,2024-01-18 09:43:22,0.0
6632,7408,-8724,386,-2214,-2285,2024-01-18 09:43:22,0.0
8876,7092,-7704,-8,1022,1668,2024-01-18 09:43:22,0.0
13596,7264,-9668,-1376,1714,2829,2024-01-18 09:43:22,0.0
13660,6400,-7196,-2264,873,1099,2024-01-18 09:43:22,0.0
12936,6460,-6924,-1911,412,809,2024-01-18 09:43:22,0.0
13132,7296,-7016,-1583,157,479,2024-01-18 09:43:22,0.0
12884,8432,-7536,-703,-352,36,2024-01-18 09:43:22,0.0
12308,7904,-7260,204,256,184,2024-01-18 09:43:22,0.0
13440,7852,-7700,634,234,268,2024-01-18 09:43:22,0.0
13976,7840,-8360,539,-180,-282,2024-01-18 09:43:22,0.0
14208,7584,-8324,131,-481,-1310,2024-01-18 09:43:22,0.0
12384,7520,-7676,36,-895,-1812,2024-01-18 09:43:22,0.0
12496,7752,-8288,-158,-385,-1325,2024-01-18 09:43:22,0.0
13360,7940,-7996,-495,-370,-1374,2024-01-18 09:43:22,0.0
12796,7800,-7616,-643,-133,-1328,2024-01-18 09:43:22,0.0
12376,7668,-7160,-539,158,-740,2024-01-18 09:43:22,0.0
12024,8004,-7312,-264,703,-113,2024-01-18 09:43:22,0.0
12808,8200,-8032,-235,1199,628,2024-01-18 09:43:22,0.0
13332,8052,-8100,-735,1147,765,2024-01-18 09:43:22,0.0
13752,7728,-7380,-808,868,327,2024-01-18 09:43:22,0.0
13852,7960,-7488,-574,661,-320,2024-01-18 09:43:22,
13572,7820,-7496,-163,652,-856,2024-01-18 09:43:22,0.0
13532,8296,-7440,402,669,-907,2024-01-18 09:43:22,0.0
13568,8604,-7076,769,14,-1426,2024-01-18 09:43:22,0.0
12708,8176,-7476,897,-658,-1046,2024-01-18 09:43:22,0.0
12696,7976,-7484,977,-715,-643,2024-01-18 09:43:22,0.0
13352,7636,-8116,646,-983,-651,2024-01-18 09:43:22,0.0
10724,7108,-6724,784,-497,1267,2024-01-18 09:43:22,0.0
12760,7428,-9108,-41,510,241,2024-01-18 09:43:22,0.0
13052,7424,-8244,-672,903,-350,2024-01-18 09:43:22,0.0
12228,7584,-7316,-298,1334,-194,2024-01-18 09:43:22,0.0
12208,7976,-7004,297,1485,77,2024-01-18 09:43:22,0.0
12760,7964,-7452,944,1486,720,2024-01-18 09:43:22,0.0
12776,7840,-7584,924,1267,877,2024-01-18 09:43:22,0.0
13424,7484,-7788,875,1176,742,2024-01-18 09:43:22,0.0
13412,7452,-8276,606,1102,452,2024-01-18 09:43:22,0.0
13712,7380,-8244,199,881,136,2024-01-18 09:43:22,0.0
13036,7780,-8220,-110,1318,-51,2024-01-18 09:43:22,0.0
12724,7656,-7656,-115,1506,436,2024-01-18 09:43:22,0.0
12560,7516,-8256,-257,1709,842,2024-01-18 09:43:22,0.0
14192,7460,-7680,-397,1687,669,2024-01-18 09:43:22,0.0
13224,7316,-7892,-751,1273,65,2024-01-18 09:43:22,0.0
12936,7232,-8152,-1164,1968,744,2024-01-18 09:43:22,0.0
13288,7672,-7796,-1398,2359,939,2024-01-18 09:43:22,0.0
14412,8116,-7588,-1282,2751,19,2024-01-18 09:43:22,0.0
10376,7452,-6636,-1280,3341,1600,2024-01-18 09:43:22,0.0
13460,7636,-6268,-747,3552,2731,2024-01-18 09:43:22,0.0
15412,7924,-6400,-290,2521,1900,2024-01-18 09:43:22,0.0
14980,7668,-5892,180,1619,667,2024-01-18 09:43:22,0.0
17356,8868,-7760,1329,-79,-205,2024-01-18 09:43:23,0.0
32767,10336,-3736,7194,-10496,-8654,2024-01-18 09:43:23,0.0
12704,8856,-14052,-85,-11692,-14525,2024-01-18 09:43:23,0.0
5636,8280,-9764,-1647,-7882,-8472,2024-01-18 09:43:23,0.0
3748,7740,-7524,-2329,-2772,-2402,2024-01-18 09:43:23,0.0
6596,7528,-5480,710,1998,3920,2024-01-18 09:43:23,0.0
12708,7096,-5904,779,3828,5945,2024-01-18 09:43:23,0.0
13848,6916,-8384,-143,3938,5931,2024-01-18 09:43:23,0.0
12888,7616,-8608,-1730,3879,6145,2024-01-18 09:43:23,0.0
11804,8120,-8468,-3239,3293,7473,2024-01-18 09:43:23,0.0
10708,7608,-8296,-4364,4802,10301,2024-01-18 09:43:23,0.0
11268,7348,-8244,-5058,7049,12944,2024-01-18 09:43:23,0.0
11764,6636,-7396,-4606,10396,14900,2024-01-18 09:43:23,0.0
12788,6156,-8680,-5210,12003,16070,2024-01-18 09:43:23,0.0
14120,5764,-9300,-7247,13116,16292,2024-01-18 09:43:23,0.0
14668,5064,-10396,-9804,13890,16263,2024-01-18 09:43:23,0.0
15436,4496,-5060,-12753,13130,14751,2024-01-18 09:43:23,0.0
16392,4608,148,-10331,12132,13320,2024-01-18 09:43:23,0.0
19184,4680,-596,-6986,10077,11600,2024-01-18 09:43:23,0.0
19832,4776,-2532,-6422,7276,9007,2024-01-18 09:43:23,0.0
16016,3332,-2020,-4239,5279,8818,2024-01-18 09:43:23,0.0
18008,2904,-3136,-4837,6252,7911,2024-01-18 09:43:23,0.0
18316,2700,-2364,-3739,6611,7885,2024-01-18 09:43:23,0.0
20036,3192,-4724,-4231,5667,6652,2024-01-18 09:43:23,0.0
18296,2728,-3620,-5418,5139,4631,2024-01-18 09:43:23,0.0
14976,2668,-492,161,7425,8487,2024-01-18 09:43:23,0.0
21192,3820,-3424,-148,9070,6735,2024-01-18 09:43:23,0.0
20884,4404,-1108,-964,4068,3778,2024-01-18 09:43:23,0.0
19616,2740,-712,-1052,2196,2054,2024-01-18 09:43:23,0.0
19068,2232,-652,-1398,1420,1497,2024-01-18 09:43:23,0.0
19568,2548,-812,-1484,1538,1034,2024-01-18 09:43:23,0.0
19488,2816,-876,-1269,922,85,2024-01-18 09:43:23,0.0
18696,2824,-1200,-1524,1433,-96,2024-01-18 09:43:23,0.0
18448,3092,-88,-1376,1389,544,2024-01-18 09:43:23,0.0
18216,2656,228,-1118,1069,955,2024-01-18 09:43:23,0.0
18572,2328,-864,-779,610,956,2024-01-18 09:43:23,0.0
18944,2388,-944,-1107,1443,372,2024-01-18 09:43:23,0.0
18576,2524,-596,-1251,1130,75,2024-01-18 09:43:23,0.0
18740,2724,-400,-1422,557,183,2024-01-18 09:43:23,0.0
18976,2476,-116,-1021,-362,45,2024-01-18 09:43:23,0.0
19500,2156,1092,-187,-1125,-619,2024-01-18 09:43:23,0.0
18508,2044,-1200,653,-2261,-1993,2024-01-18 09:43:23,0.0
17192,2464,-2460,460,-2252,-2389,2024-01-18 09:43:23,0.0
16956,2620,-1612,487,-1281,-2223,2024-01-18 09:43:23,0.0
18292,2648,-1512,593,-1386,-2059,2024-01-18 09:43:23,0.0
18904,2408,-1404,396,-2024,-2402,2024-01-18 09:43:23,0.0
19516,2444,-372,545,-2435,-3146,2024-01-18 09:43:23,0.0
18828,2824,-1120,1099,-5021,-4442,2024-01-18 09:43:23,0.0
20200,3672,168,2420,-7643,-6129,2024-01-18 09:43:23,0.0
19240,3812,-192,3550,-9529,-7114,2024-01-18 09:43:23,0.0
19172,4068,-580,4910,-11142,-8490,2024-01-18 09:43:23,0.0
17560,3756,-1692,5810,-12666,-9131,2024-01-18 09:43:23,0.0
17796,4464,-4948,5582,-15319,-9301,2024-01-18 09:43:23,0.0
18172,5248,-7276,3816,-18355,-10881,2024-01-18 09:43:23,0.0
17204,5156,-6840,1379,-23067,-11973,2024-01-18 09:43:23,0.0
19628,5228,-6376,-255,-17501,-12882,2024-01-18 09:43:23,0.0
15784,5548,-4608,-282,-14894,-13519,2024-01-18 09:43:23,0.0
12108,6232,-5064,793,-17453,-12805,2024-01-18 09:43:23,0.0
10220,7172,-7588,856,-23943,-11672,2024-01-18 09:43:23,0.0
10456,7748,-10304,-1168,-29289,-10841,2024-01-18 09:43:24,0.0
11272,8228,-12380,-4246,-31272,-10010,2024-01-18 09:43:24,0.0
12424,8092,-12604,-7773,-27948,-8864,2024-01-18 09:43:24,0.0
13672,7160,-10940,-9123,-20393,-8238,2024-01-18 09:43:24,0.0
13664,6836,-8808,-8020,-13682,-8254,2024-01-18 09:43:24,0.0
11952,7708,-7744,-6430,-11096,-8134,2024-01-18 09:43:24,0.0
10072,9528,-7656,-4306,-9326,-7346,2024-01-18 09:43:24,0.0
9444,10632,-8340,-1982,-9410,-7479,2024-01-18 09:43:24,0.0
9004,10416,-9164,-1674,-12122,-8065,2024-01-18 09:43:24,0.0
9428,10392,-10456,-1968,-12915,-8886,2024-01-18 09:43:24,0.0
9052,10300,-10516,-2074,-12037,-9702,2024-01-18 09:43:24,0.0
8452,9504,-10268,-1903,-11385,-10154,2024-01-18 09:43:24,0.0
6456,9748,-9540,-1342,-9790,-9699,2024-01-18 09:43:24,
5388,9968,-9316,-316,-8832,-8740,2024-01-18 09:43:24,0.0
5240,9920,-9160,712,-8042,-8010,2024-01-18 09:43:24,0.0
5224,9048,-9516,1330,-7948,-7531,2024-01-18 09:43:24,0.0
5128,8232,-10392,1738,-7579,-7037,2024-01-18 09:43:24,0.0
3972,7692,-10216,1605,-9272,-6798,2024-01-18 09:43:24,0.0
3456,7784,-10492,695,-12039,-6843,2024-01-18 09:43:24,0.0
3716,9816,-10796,-268,-12870,-7631,2024-01-18 09:43:24,0.0
4904,10196,-10644,-429,-11407,-9553,2024-01-18 09:43:24,0.0
4604,9456,-10332,-1070,-11218,-10992,2024-01-18 09:43:24,0.0
3872,8796,-10352,-1572,-10981,-11461,2024-01-18 09:43:24,0.0
2780,8588,-9532,-1141,-10052,-11347,2024-01-18 09:43:24,0.0
2472,8068,-10144,-209,-9686,-10510,2024-01-18 09:43:24,0.0
2908,7596,-10608,423,-8162,-10023,2024-01-18 09:43:24,0.0
1992,8380,-10576,1050,-4655,-10244,2024-01-18 09:43:24,0.0
1488,7704,-10408,1585,-2679,-11130,2024-01-18 09:43:24,0.0
2928,6692,-10796,2412,1023,-12799,2024-01-18 09:43:24,0.0
1904,6800,-10904,2770,2571,-14578,2024-01-18 09:43:24,0.0
1172,8304,-10016,2986,1833,-16242,2024-01-18 09:43:24,0.0
172,7968,-9040,3200,-700,-19302,2024-01-18 09:43:24,0.0
-772,7056,-10012,3623,-3309,-23312,2024-01-18 09:43:24,0.0
-3780,6352,-11840,3037,-3862,-23987,2024-01-18 09:43:24,0.0
-6008,5716,-12128,2085,-3510,-22141,2024-01-18 09:43:24,0.0
-7420,4688,-12404,888,-4745,-18643,2024-01-18 09:43:24,0.0
-7672,4120,-12880,-558,-4687,-14397,2024-01-18 09:43:24,0.0
-8100,4340,-13096,-2203,-4362,-11279,2024-01-18 09:43:24,0.0
-7540,5408,-11356,-3082,-4024,-9462,2024-01-18 09:43:24,0.0
-6340,6012,-9660,-2555,-5067,-9899,2024-01-18 09:43:24,0.0
-4548,5484,-9212,-1247,-7000,-11443,2024-01-18 09:43:24,0.0
-2900,5436,-9728,-1122,-10494,-13510,2024-01-18 09:43:24,0.0
-3084,5532,-10512,-1183,-10434,-14860,2024-01-18 09:43:24,0.0
-6140,5720,-11136,-1259,-7603,-15631,2024-01-18 09:43:24,0.0
-10988,6148,-11080,-1640,-3066,-14326,2024-01-18 09:43:24,0.0
-13020,5352,-10336,-1289,180,-12267,2024-01-18 09:43:24,0.0
-12876,3808,-11140,-1182,221,-9878,2024-01-18 09:43:24,0.0
-11224,3624,-12320,-1860,249,-7597,2024-01-18 09:43:24,0.0
-10276,5852,-8116,-812,1039,-2682,2024-01-18 09:43:24,0.0
-6336,6192,-7100,1128,-1864,-1927,2024-01-18 09:43:24,0.0
-4976,6332,-9484,2070,-4159,-2483,2024-01-18 09:43:24,0.0
-3028,6268,-13424,783,-3632,-4653,2024-01-18 09:43:24,0.0
-1464,5464,-14564,-1451,-1045,-8429,2024-01-18 09:43:24,0.0
-3872,3616,-12600,-3109,171,-11895,2024-01-18 09:43:24,0.0
-5444,1868,-14572,-5109,-50,-14399,2024-01-18 09:43:24,0.0
-9420,1404,-12748,-7437,517,-15274,2024-01-18 09:43:24,0.0
-11908,348,-10912,-8216,2829,-13436,2024-01-18 09:43:24,0.0
-12192,476,-12284,-9056,6123,-9563,2024-01-18 09:43:24,0.0
-7956,352,-9328,-9371,4778,-8248,2024-01-18 09:43:24,0.0
-6316,572,-7800,-8323,4449,-8764,2024-01-18 09:43:25,0.0
-7412,2292,-9444,-7523,2675,-8767,2024-01-18 09:43:25,0.0
-9144,3028,-9956,-8136,825,-7980,2024-01-18 09:43:25,0.0
-12416,2976,-8564,-8318,632,-4923,2024-01-18 09:43:25,0.0
-13516,5176,-6876,-7150,299,-1123,2024-01-18 09:43:25,0.0
-10392,5968,-6400,-5039,-133,1550,2024-01-18 09:43:25,0.0
-3296,6032,-13812,-5732,4641,-4120,2024-01-18 09:43:25,0.0
-5732,5012,-3412,-297,1987,-8380,2024-01-18 09:43:25,0.0
-7648,4520,-7212,1422,-106,-8543,2024-01-18 09:43:25,0.0
-5260,4276,-9728,-289,-787,-7995,2024-01-18 09:43:25,0.0
-2180,2720,-8616,-1936,855,-9910,2024-01-18 09:43:25,0.0
-3336,1760,-5904,-2455,1500,-12453,2024-01-18 09:43:25,0.0
-5908,1448,-4120,-1417,1307,-13669,2024-01-18 09:43:25,0.0
-9564,704,-336,2379,-2531,-13099,2024-01-18 09:43:25,0.0
-10488,980,-3592,5607,-4419,-12645,2024-01-18 09:43:25,0.0
-10984,496,-9392,5822,-5243,-11410,2024-01-18 09:43:25,0.0
-10808,228,-13204,2922,-4595,-10854,2024-01-18 09:43:25,0.0
-11232,488,-14224,-1199,-1763,-9730,2024-01-18 09:43:25,0.0
-12700,-1164,-11324,-3159,-450,-8277,2024-01-18 09:43:25,0.0
-13240,-1548,-8380,-2072,-947,-6811,2024-01-18 09:43:25,0.0
-13320,-1792,-7440,136,-2823,-6140,2024-01-18 09:43:25,0.0
-14576,-1616,-9120,1649,-4770,-5165,2024-01-18 09:43:25,0.0
-15636,-1528,-10304,2014,-6149,-3163,2024-01-18 09:43:25,0.0
-15264,-880,-10164,2070,-6860,-646,2024-01-18 09:43:25,0.0
-16308,-520,-8676,2412,-13647,223,2024-01-18 09:43:25,0.0
-15296,-772,-8036,3169,-19249,-412,2024-01-18 09:43:25,0.0
-15836,-504,-8076,3830,-22555,-604,2024-01-18 09:43:25,0.0
-16080,280,-8288,4193,-17353,1181,2024-01-18 09:43:25,0.0
-13464,1736,-9068,3156,-10526,2802,2024-01-18 09:43:25,0.0
-12668,584,-8328,1855,-7329,3504,2024-01-18 09:43:25,0.0
-11468,1376,-8764,739,-6159,3778,2024-01-18 09:43:25,0.0
-10016,776,-9452,-1473,-7201,3422,2024-01-18 09:43:25,0.0
-7580,1012,-10460,-4038,-12719,2169,2024-01-18 09:43:25,0.0
-6496,360,-11620,-6926,-11754,-400,2024-01-18 09:43:25,0.0
-8868,416,-11592,-10725,-6422,-3636,2024-01-18 09:43:25,0.0
-13496,-328,-9436,-13671,-5616,-4864,2024-01-18 09:43:25,0.0
-15804,-944,-7632,-15312,-3684,-4162,2024-01-18 09:43:25,0.0
-17724,-1896,-5004,-15796,-4388,-2881,2024-01-18 09:43:25,0.0
-16952,-1620,-4352,-16252,-11475,-1583,2024-01-18 09:43:25,0.0
-16512,-1668,-4744,-15948,-14219,-301,2024-01-18 09:43:25,0.0
-15848,-516,-4676,-15481,-14023,1310,2024-01-18 09:43:25,0.0
-15200,792,-3820,-15212,-11545,2631,2024-01-18 09:43:25,0.0
-14564,1168,-3344,-15173,-10206,3383,2024-01-18 09:43:25,0.0
-15088,1416,-1184,-15200,-8777,3524,2024-01-18 09:43:25,0.0
-14796,1296,268,-13584,-4386,4252,2024-01-18 09:43:25,0.0
-14008,1716,364,-12357,-955,4511,2024-01-18 09:43:25,0.0
-12412,2088,-92,-11588,913,4807,2024-01-18 09:43:25,0.0
-9672,2764,440,-11046,-2809,3644,2024-01-18 09:43:25,0.0
-8864,3156,884,-10089,-5947,2038,2024-01-18 09:43:25,0.0
-10084,2408,648,-9103,-7648,387,2024-01-18 09:43:25,0.0
-12172,2864,-156,-8900,-8007,60,2024-01-18 09:43:25,0.0
-14092,2396,-416,-8455,-5704,1168,2024-01-18 09:43:25,0.0
-12712,3304,-1672,-8757,-3727,3016,2024-01-18 09:43:25,0.0
-10068,2896,-1380,-9979,-3878,3837,2024-01-18 09:43:25,
-4892,2740,-1372,-11197,-7181,3067,2024-01-18 09:43:25,0.0
-2128,2340,-800,-13260,-5876,-1165,2024-01-18 09:43:25,0.0
-3180,580,624,-14739,-5186,-5215,2024-01-18 09:43:25,0.0
-6932,48,2144,-14914,-4123,-8609,2024-01-18 09:43:25,0.0
-11240,-360,3228,-13851,-2747,-9586,2024-01-18 09:43:25,0.0
-14088,-876,2004,-12914,-1397,-8547,2024-01-18 09:43:25,0.0
-15528,-948,2772,-13037,-3898,-7531,2024-01-18 09:43:26,0.0
-14800,-932,2040,-12769,-3569,-5639,2024-01-18 09:43:26,0.0
-13160,-1576,2680,-13543,-2992,-5112,2024-01-18 09:43:26,0.0
-11104,-2400,2184,-14774,-546,-5524,2024-01-18 09:43:26,0.0
-11716,-3516,4976,-16602,-407,-7631,2024-01-18 09:43:26,0.0
-14132,-3836,6396,-16633,-301,-8174,2024-01-18 09:43:26,0.0
-15464,-3684,7988,-15720,19,-7804,2024-01-18 09:43:26,0.0
-16212,-3932,8900,-13452,754,-6505,2024-01-18 09:43:26,0.0
-16300,-4104,10008,-11436,-1857,-5607,2024-01-18 09:43:26,0.0
-15744,-3572,9844,-9209,-2478,-4731,2024-01-18 09:43:26,0.0
-15612,-2136,9288,-6832,-873,-3676,2024-01-18 09:43:26,0.0
-14600,-2636,7436,-5558,1484,-2259,2024-01-18 09:43:26,0.0
-11524,-2980,6236,-5513,1445,-2728,2024-01-18 09:43:26,0.0
-11792,-3568,5816,-6353,2081,-3646,2024-01-18 09:43:26,0.0
-12192,-3088,6168,-6607,2456,-3598,2024-01-18 09:43:26,0.0
-8044,-6152,10464,-5380,-6304,-9475,2024-01-18 09:43:26,0.0
-10484,-2488,10508,-3288,-1027,-8797,2024-01-18 09:43:26,0.0
-15012,-6340,8452,-1065,1050,-9226,2024-01-18 09:43:26,0.0
-32024,-676,4084,2791,6387,2433,2024-01-18 09:43:26,0.0
-10692,-6172,3656,3503,3228,2274,2024-01-18 09:43:26,0.0
-7136,-4276,3008,3003,341,49,2024-01-18 09:43:26,0.0
-20868,-6292,-1764,1154,843,1780,2024-01-18 09:43:26,0.0
-12508,-5128,36,-671,-4429,2204,2024-01-18 09:43:26,0.0
-10648,-4264,6396,-952,-2118,1995,2024-01-18 09:43:26,0.0
-10716,-2948,4700,-720,982,1758,2024-01-18 09:43:26,0.0
-12676,-2972,4516,-853,3712,2061,2024-01-18 09:43:26,0.0
-17204,-2612,5048,-912,6091,2751,2024-01-18 09:43:26,0.0
-14132,-2768,3844,-1484,6216,3311,2024-01-18 09:43:26,0.0
-13768,-4084,3144,-1706,5355,3259,2024-01-18 09:43:26,0.0
-14252,-3636,2148,-1916,3233,3508,2024-01-18 09:43:26,0.0
-14488,-2320,1660,-2735,-1472,4721,2024-01-18 09:43:26,0.0
-12184,-2356,4552,-2039,1433,4992,2024-01-18 09:43:26,0.0
-14392,-2740,2660,-736,5845,2976,2024-01-18 09:43:26,0.0
-14300,-1792,2040,-568,3289,1005,2024-01-18 09:43:26,0.0
-14072,-1280,2296,-289,551,195,2024-01-18 09:43:26,0.0
-13868,-736,2052,-352,-910,370,2024-01-18 09:43:26,0.0
-13000,-1528,3696,277,8,692,2024-01-18 09:43:26,0.0
-12508,-1136,2412,446,-2226,1923,2024-01-18 09:43:26,0.0
-13364,-1280,3248,-12,-3519,2965,2024-01-18 09:43:26,0.0
-13636,-2056,2624,-722,-2004,3158,2024-01-18 09:43:26,0.0
-13868,-1452,2596,-1925,-1821,2333,2024-01-18 09:43:26,0.0
-14224,-1536,3748,-1322,-4470,1826,2024-01-18 09:43:26,0.0
-13368,-1168,4372,-1285,-2263,1485,2024-01-18 09:43:26,0.0
-14280,-1376,4460,-1302,-4640,1374,2024-01-18 09:43:26,0.0
-11984,-864,4452,-1220,-5688,1610,2024-01-18 09:43:26,0.0
-12532,-1644,5540,-703,-6975,1720,2024-01-18 09:43:26,0.0
-15088,-928,4700,204,-7800,1894,2024-01-18 09:43:26,0.0
-13184,-700,5168,939,-7100,1608,2024-01-18 09:43:26,0.0
-13752,352,5048,1472,-4598,1373,2024-01-18 09:43:26,0.0
-12304,2264,4376,2352,1097,877,2024-01-18 09:43:26,0.0
-14148,-524,5736,2506,4199,653,2024-01-18 09:43:26,0.0
-14064,-1228,6204,2762,5549,-625,2024-01-18 09:43:26,0.0
-12476,272,4084,4746,6464,-697,2024-01-18 09:43:26,0.0
-14288,-508,2832,4373,8011,-577,2024-01-18 09:43:26,0.0
-14296,-456,2300,3178,6209,-491,2024-01-18 09:43:26,0.0
-13476,-144,2248,1844,6034,-419,2024-01-18 09:43:26,0.0
-13400,-304,2424,1113,5381,-352,2024-01-18 09:43:26,0.0
-13320,-172,1712,201,7892,-365,2024-01-18 09:43:26,0.0
-13256,-500,3332,-252,10418,-360,2024-01-18 09:43:26,0.0
-13252,-368,3328,-316,13261,-384,2024-01-18 09:43:26,0.0
-15408,-76,3116,293,9043,-389,2024-01-18 09:43:27,0.0
-13968,-880,1876,612,4631,-369,2024-01-18 09:43:27,0.0
-12056,-1112,2660,1061,3295,-264,2024-01-18 09:43:27,0.0
-14992,-464,1564,1974,49,-114,2024-01-18 09:43:27,0.0
-16104,-812,844,1741,-4886,159,2024-01-18 09:43:27,0.0
-15524,108,456,2139,-3679,-35,2024-01-18 09:43:27,0.0
-13384,-424,1224,1623,-4595,-42,2024-01-18 09:43:27,0.0
-13120,-304,484,339,-962,-142,2024-01-18 09:43:27,0.0
-13164,-136,2932,-83,2542,-241,2024-01-18 09:43:27,0.0
-13544,-192,2892,281,5238,-281,2024-01-18 09:43:27,0.0
-14488,-656,3376,1114,3745,-223,2024-01-18 09:43:27,0.0
-12992,-352,2452,2185,1925,-142,2024-01-18 09:43:27,0.0
-13828,-628,2224,2935,1876,-119,2024-01-18 09:43:27,0.0
-13532,-488,2060,3433,1884,-87,2024-01-18 09:43:27,0.0
-15380,-988,1060,3966,430,70,2024-01-18 09:43:27,0.0
-15524,-888,116,4197,-1947,123,2024-01-18 09:43:27,0.0
-14500,1020,148,3895,-1928,29,2024-01-18 09:43:27,0.0
-12968,-908,-796,2712,-1437,-24,2024-01-18 09:43:27,0.0
-12840,-200,-172,1223,1227,-158,2024-01-18 09:43:27,0.0
-13752,-756,1284,153,1900,-211,2024-01-18 09:43:27,0.0
-13588,-324,1744,-59,3201,-302,2024-01-18 09:43:27,0.0
-13796,-436,1196,42,4004,-351,2024-01-18 09:43:27,0.0
-14100,-620,760,8,2201,-275,2024-01-18 09:43:27,0.0
-14124,-632,664,-88,77,-179,2024-01-18 09:43:27,0.0
-13672,-476,1372,-124,173,-165,2024-01-18 09:43:27,0.0
-13644,-508,1556,-18,1182,-217,2024-01-18 09:43:27,0.0
-14172,-448,1304,139,1647,-214,2024-01-18 09:43:27,0.0
-13764,-408,1248,237,1707,-165,2024-01-18 09:43:27,0.0
-13948,-492,860,255,997,-163,2024-01-18 09:43:27,0.0
-13800,-448,328,-113,699,-156,2024-01-18 09:43:27,0.0
-13856,-520,1044,-47,-27,-168,2024-01-18 09:43:27,0.0
-13748,-420,1196,31,1242,-146,2024-01-18 09:43:27,0.0
-13804,-464,1052,171,2011,-154,2024-01-18 09:43:27,0.0
-13796,-480,916,154,1605,-155,2024-01-18 09:43:27,
-13868,-476,1444,436,674,-137,2024-01-18 09:43:27,0.0
-13720,-540,1292,765,255,-127,2024-01-18 09:43:27,0.0
-13732,-352,520,844,483,-127,2024-01-18 09:43:27,0.0
-13724,-560,-104,469,857,-143,2024-01-18 09:43:27,0.0
-13756,-544,-436,-86,467,-179,2024-01-18 09:43:27,0.0
-13672,-448,828,-303,652,-168,2024-01-18 09:43:27,0.0
-13744,-412,856,-220,522,-180,2024-01-18 09:43:27,0.0
-13828,-456,668,-181,137,-171,2024-01-18 09:43:27,0.0
-13816,-496,800,-57,-678,-195,2024-01-18 09:43:27,0.0
-14112,-476,1420,335,-871,-126,2024-01-18 09:43:27,0.0
-13736,-496,800,407,-427,-120,2024-01-18 09:43:27,0.0
-13808,-472,832,289,-160,-174,2024-01-18 09:43:27,0.0
-13728,-396,552,29,68,-164,2024-01-18 09:43:27,0.0
-13796,-364,776,-13,-155,-146,2024-01-18 09:43:27,0.0
-13904,-524,1292,298,-664,-116,2024-01-18 09:43:27,0.0
-13752,-512,1236,547,-494,-110,2024-01-18 09:43:27,0.0
-13716,-376,340,369,60,-137,2024-01-18 09:43:27,0.0
-13608,-388,672,13,790,-176,2024-01-18 09:43:27,0.0
-13832,-596,1048,0,825,-164,2024-01-18 09:43:27,0.0
-13836,-412,1044,69,469,-159,2024-01-18 09:43:27,0.0
-13840,-560,916,130,226,-170,2024-01-18 09:43:27,0.0
-13772,-448,796,150,-185,-151,2024-01-18 09:43:27,0.0
-13648,-364,880,-120,435,-166,2024-01-18 09:43:27,0.0
-13768,-380,852,-145,944,-189,2024-01-18 09:43:27,0.0
-14532,-228,1272,-70,1374,-57,2024-01-18 09:43:27,0.0
-15936,-616,2668,539,-88,771,2024-01-18 09:43:27,0.0
-16896,-840,3556,2139,-4675,2232,2024-01-18 09:43:28,0.0
-15028,-148,2480,4132,-6708,3357,2024-01-18 09:43:28,0.0
-12480,168,-592,2296,-15,3232,2024-01-18 09:43:28,0.0
-9748,84,-776,1454,1308,1835,2024-01-18 09:43:28,0.0
-10868,-104,-924,271,1028,-265,2024-01-18 09:43:28,0.0
-13384,20,1144,-171,-248,-995,2024-01-18 09:43:28,0.0
-14800,-256,3148,367,38,-977,2024-01-18 09:43:28,0.0
-16248,-540,468,379,785,255,2024-01-18 09:43:28,0.0
-14652,-52,-1244,-539,408,1206,2024-01-18 09:43:28,0.0
-13136,92,364,-1522,1026,1070,2024-01-18 09:43:28,0.0
-12356,212,1516,-1655,980,236,2024-01-18 09:43:28,0.0
-12984,52,2896,-952,919,-258,2024-01-18 09:43:28,0.0
-13296,24,2508,-19,470,-649,2024-01-18 09:43:28,0.0
-13216,100,1484,481,-34,-1007,2024-01-18 09:43:28,0.0
-12628,284,432,591,-1169,-1604,2024-01-18 09:43:28,0.0
-13228,356,80,42,-819,-2030,2024-01-18 09:43:28,0.0
-14052,320,112,-588,142,-1987,2024-01-18 09:43:28,0.0
-13988,212,304,-1141,846,-1784,2024-01-18 09:43:28,0.0
-12628,-188,740,-1424,417,-2192,2024-01-18 09:43:28,0.0
-11920,-476,1520,-1202,-424,-3222,2024-01-18 09:43:28,0.0
-10416,-1308,2716,-264,-2061,85,2024-01-18 09:43:28,0.0
-7668,-1236,2944,-376,-713,-799,2024-01-18 09:43:28,0.0
-13468,-564,1360,-266,802,-198,2024-01-18 09:43:28,0.0
-13660,-680,1448,-147,1335,-250,2024-01-18 09:43:28,0.0
-13648,-980,1212,-180,1997,-231,2024-01-18 09:43:28,0.0
-13924,-608,1160,17,1820,-194,2024-01-18 09:43:28,0.0
-13696,-448,964,19,1416,-189,2024-01-18 09:43:28,0.0
-13876,-540,656,-11,850,-162,2024-01-18 09:43:28,0.0
-13724,-412,932,-34,795,-175,2024-01-18 09:43:28,0.0
-13888,-428,656,-105,433,-167,2024-01-18 09:43:28,0.0
-13808,-440,884,-183,99,-204,2024-01-18 09:43:28,0.0
-13788,-440,952,-177,204,-211,2024-01-18 09:43:28,0.0
-13868,-460,972,-184,81,-177,2024-01-18 09:43:28,0.0
-13756,-608,960,-165,-50,-182,2024-01-18 09:43:28,0.0
-13792,-528,1140,-127,89,-152,2024-01-18 09:43:28,0.0
-13700,-460,1012,-60,227,-181,2024-01-18 09:43:28,0.0
-13800,-500,736,-98,266,-186,2024-01-18 09:43:28,0.0
-13864,-456,904,-121,-3,-190,2024-01-18 09:43:28,0.0
-13836,-504,1032,-108,-28,-186,2024-01-18 09:43:28,0.0
-13748,-408,696,-122,221,-186,2024-01-18 09:43:28,0.0
-13704,-452,960,-160,362,-177,2024-01-18 09:43:28,0.0
-13860,-412,788,-153,330,-166,2024-01-18 09:43:28,0.0
-13860,-444,676,-146,-42,-177,2024-01-18 09:43:28,0.0
-13684,-432,1072,-164,-342,-163,2024-01-18 09:43:28,0.0
-13712,-496,1204,-54,-101,-173,2024-01-18 09:43:28,0.0
-13732,-416,732,-109,337,-184,2024-01-18 09:43:28,0.0
-13752,-464,824,-184,329,-188,2024-01-18 09:43:28,0.0
-13848,-472,812,-206,220,-177,2024-01-18 09:43:28,0.0
-13824,-496,1008,-173,153,-206,2024-01-18 09:43:28,0.0
-13752,-400,940,-169,13,-186,2024-01-18 09:43:28,0.0
-13880,-600,1080,-134,143,-185,2024-01-18 09:43:28,0.0
-13716,-408,392,-283,74,-198,2024-01-18 09:43:28,0.0
-13660,-396,80,-753,440,-237,2024-01-18 09:43:28,0.0
-13940,-564,452,-1044,248,-178,2024-01-18 09:43:28,0.0
-13956,-488,968,-1107,-22,-60,2024-01-18 09:43:28,0.0
-13644,-428,1784,-711,-141,-43,2024-01-18 09:43:28,0.0
-13264,-512,1896,-186,209,-221,2024-01-18 09:43:28,0.0
-13476,-408,1388,187,246,-552,2024-01-18 09:43:28,0.0
-14108,168,1964,151,-130,-35,2024-01-18 09:43:28,0.0
-14224,-916,644,-218,-84,-102,2024-01-18 09:43:29,0.0
-15152,-608,916,-326,-58,-169,2024-01-18 09:43:29,0.0
-13728,-432,1068,-196,76,-196,2024-01-18 09:43:29,0.0
-13808,-492,1144,-156,134,-168,2024-01-18 09:43:29,0.0
-13840,-484,756,-183,224,-191,2024-01-18 09:43:29,0.0
-13796,-472,680,-438,472,-203,2024-01-18 09:43:29,0.0
-13476,-268,20,-781,201,-244,2024-01-18 09:43:29,0.0
-13764,-444,-1100,-1860,1725,-337,2024-01-18 09:43:29,0.0
-12700,-392,1028,-2060,443,-359,2024-01-18 09:43:29,0.0
-14332,-524,2612,-1305,78,-265,2024-01-18 09:43:29,0.0
-13780,-392,876,-178,-1392,-180,2024-01-18 09:43:29,0.0
-13852,-168,704,-154,-2078,-139,2024-01-18 09:43:29,0.0
-13752,316,16,-269,-2381,-142,2024-01-18 09:43:29,0.0
-13716,-888,448,-949,-1328,-176,2024-01-18 09:43:29,0.0
-13780,-676,1248,-1264,-759,-191,2024-01-18 09:43:29,
-14768,-480,1572,-1386,-1056,-201,2024-01-18 09:43:29,0.0
-14688,-1440,2472,-890,-1477,-199,2024-01-18 09:43:29,0.0
-13804,-632,2212,-450,-1652,-137,2024-01-18 09:43:29,0.0
-13784,-532,1984,-215,-937,-131,2024-01-18 09:43:29,0.0
-13932,-432,1260,-140,-1827,-155,2024-01-18 09:43:29,0.0
-13796,-448,1644,-139,-1691,-130,2024-01-18 09:43:29,0.0
-13740,-204,1440,-174,-1114,-150,2024-01-18 09:43:29,0.0
-13700,-116,1544,-243,-353,-174,2024-01-18 09:43:29,0.0
-13832,-348,1624,-406,-204,-185,2024-01-18 09:43:29,0.0
-13892,-1072,2008,-131,-542,-148,2024-01-18 09:43:29,0.0
-14164,-156,1552,200,-1541,-122,2024-01-18 09:43:29,0.0
-13660,-468,2168,80,-974,-165,2024-01-18 09:43:29,0.0
-13736,-264,2192,221,2,-163,2024-01-18 09:43:29,0.0
-13504,-400,2036,97,1575,-182,2024-01-18 09:43:29,0.0
-13396,36,2228,-1,3192,-249,2024-01-18 09:43:29,0.0
-13928,-256,2284,138,4676,-251,2024-01-18 09:43:29,0.0
-14748,-536,1508,632,3393,-213,2024-01-18 09:43:29,0.0
-15212,-1836,1364,1313,-2620,-1,2024-01-18 09:43:29,0.0
-13708,-628,512,326,-649,-167,2024-01-18 09:43:29,0.0
-13800,-900,1316,-27,71,-169,2024-01-18 09:43:29,0.0
-13712,-476,1712,-143,862,-186,2024-01-18 09:43:29,0.0
-14188,-408,1304,-98,406,-169,2024-01-18 09:43:29,0.0
-14116,-104,1340,25,-1144,-138,2024-01-18 09:43:29,0.0
-13612,-928,1428,-76,-666,-153,2024-01-18 09:43:29,0.0
-13764,-408,1644,-25,-18,-168,2024-01-18 09:43:29,0.0
-13932,-44,1704,160,-502,-162,2024-01-18 09:43:29,0.0
-13760,-460,1512,121,-329,-176,2024-01-18 09:43:29,0.0
-13760,-812,1604,51,-548,-162,2024-01-18 09:43:29,0.0
-13828,-1004,1064,-76,-1399,-133,2024-01-18 09:43:29,0.0
-13948,-432,1152,-376,-2012,-128,2024-01-18 09:43:29,0.0
-14016,-208,4296,-160,-1261,-144,2024-01-18 09:43:29,0.0
-13348,-680,2308,-490,342,-202,2024-01-18 09:43:29,0.0
-14052,-364,2136,-350,521,-207,2024-01-18 09:43:29,0.0
-13820,-288,1556,-309,-87,-167,2024-01-18 09:43:29,0.0
-14236,-1348,1808,-271,-886,-165,2024-01-18 09:43:29,0.0
-13748,-620,2212,-399,-392,-179,2024-01-18 09:43:29,0.0
-13776,-524,2184,-251,294,-188,2024-01-18 09:43:29,0.0
-13844,-468,1832,-193,298,-170,2024-01-18 09:43:29,0.0
-13848,-532,1660,-158,133,-211,2024-01-18 09:43:29,0.0
-13728,-416,1916,-168,229,-182,2024-01-18 09:43:29,0.0
-13876,-440,1732,-186,131,-191,2024-01-18 09:43:29,0.0
-13772,-332,1844,-180,-24,-175,2024-01-18 09:43:29,0.0
-13848,-484,1976,-164,160,-161,2024-01-18 09:43:29,0.0
-13804,-496,1716,-181,127,-160,2024-01-18 09:43:29,0.0
-13976,-440,1856,-154,81,-176,2024-01-18 09:43:29,0.0
-13916,-640,1744,-225,-276,-174,2024-01-18 09:43:30,0.0
-14024,-484,1356,-436,-1336,-153,2024-01-18 09:43:30,0.0
-13748,-268,1952,-634,-1226,-132,2024-01-18 09:43:30,0.0
-13624,-200,2700,-429,-181,-188,2024-01-18 09:43:30,0.0
-13840,-408,2232,-133,358,-187,2024-01-18 09:43:30,0.0
-14004,-504,1856,-160,-97,-156,2024-01-18 09:43:30,0.0
-13844,-452,1984,-168,-104,-171,2024-01-18 09:43:30,0.0
-13792,-328,2060,-204,-60,-177,2024-01-18 09:43:30,0.0
-13732,-428,2160,-162,224,-202,2024-01-18 09:43:30,0.0
-13928,-532,1844,-198,54,-185,2024-01-18 09:43:30,0.0
-13932,-428,1992,-192,-122,-172,2024-01-18 09:43:30,0.0
-13808,-416,2044,-195,-165,-184,2024-01-18 09:43:30,0.0
-13800,-360,2076,-166,44,-174,2024-01-18 09:43:30,0.0
-13896,-448,2036,-169,-223,-177,2024-01-18 09:43:30,0.0
-13800,-448,2080,-152,-317,-149,2024-01-18 09:43:30,0.0
-13820,-456,2064,-198,-154,-176,2024-01-18 09:43:30,0.0
-13932,-596,1936,-141,-232,-168,2024-01-18 09:43:30,0.0
-13836,-428,2012,-173,-547,-192,2024-01-18 09:43:30,0.0
-13784,-344,2228,-190,-199,-168,2024-01-18 09:43:30,0.0
-13848,-436,2200,-178,-152,-180,2024-01-18 09:43:30,0.0
-13924,-476,2044,-182,-355,-163,2024-01-18 09:43:30,0.0
-14052,-616,2192,-134,-1005,-138,2024-01-18 09:43:30,0.0
-13704,-212,1760,-278,-1780,-135,2024-01-18 09:43:30,0.0
-13696,-336,2296,-616,-682,-153,2024-01-18 09:43:30,0.0
-13524,-260,2732,-640,209,-192,2024-01-18 09:43:30,0.0
-13896,-464,2960,-379,575,-208,2024-01-18 09:43:30,0.0
-13900,-396,2472,-253,358,-199,2024-01-18 09:43:30,0.0
-13772,-500,2440,-182,300,-181,2024-01-18 09:43:30,0.0
-13924,-404,2408,-128,485,-206,2024-01-18 09:43:30,0.0
-13844,-424,2192,-131,143,-192,2024-01-18 09:43:30,0.0
-13872,-440,2328,-111,134,-212,2024-01-18 09:43:30,0.0
-13956,-440,2504,-106,125,-186,2024-01-18 09:43:30,0.0
-13780,-384,2340,-179,247,-172,2024-01-18 09:43:30,0.0
-13924,-472,2268,-182,380,-170,2024-01-18 09:43:30,0.0
-13724,-492,2416,-183,221,-190,2024-01-18 09:43:30,0.0
-13792,-456,2396,-182,166,-203,2024-01-18 09:43:30,0.0
-13764,-364,2336,-176,243,-182,2024-01-18 09:43:30,0.0
-13792,-400,2376,-171,214,-189,2024-01-18 09:43:30,0.0
-13860,-488,2344,-171,198,-178,2024-01-18 09:43:30,0.0
-14036,-604,2108,-204,-100,-175,2024-01-18 09:43:30,0.0
-13992,-640,1480,-494,-1392,-161,2024-01-18 09:43:30,0.0
-13976,-208,2204,-732,-1233,-124,2024-01-18 09:43:30,0.0
-13856,-188,3036,-610,-698,-180,2024-01-18 09:43:30,0.0
-14108,-296,3176,-367,-510,-174,2024-01-18 09:43:30,0.0
-13696,-296,3128,-261,233,-183,2024-01-18 09:43:30,0.0
-13916,-460,2432,-203,341,-189,2024-01-18 09:43:30,0.0
-13784,-444,2544,-160,97,-176,2024-01-18 09:43:30,0.0
-13848,-504,2716,-144,269,-183,2024-01-18 09:43:30,0.0
-13988,-584,2372,-159,-42,-187,2024-01-18 09:43:30,0.0
-13732,-520,2628,-242,-217,-171,2024-01-18 09:43:30,0.0
-13688,-448,2560,-284,-24,-176,2024-01-18 09:43:30,0.0
-13860,-416,2708,-244,294,-173,2024-01-18 09:43:30,0.0
-13912,-412,2632,-172,311,-173,2024-01-18 09:43:30,0.0
-13772,-444,2556,-165,291,-201,2024-01-18 09:43:30,0.0
-13764,-448,2592,-180,257,-180,2024-01-18 09:43:30,
-13860,-444,2560,-160,247,-175,2024-01-18 09:43:30,0.0
-13968,-536,2448,-168,230,-192,2024-01-18 09:43:30,0.0
-13764,-500,2516,-173,254,-191,2024-01-18 09:43:30,0.0
-13832,-432,2452,-171,187,-160,2024-01-18 09:43:30,0.0
-13816,-404,2636,-210,248,-205,2024-01-18 09:43:30,0.0
-13848,-440,2532,-209,168,-194,2024-01-18 09:43:31,0.0
-13800,-424,2508,-225,241,-191,2024-01-18 09:43:31,0.0
-13840,-412,2560,-206,267,-187,2024-01-18 09:43:31,0.0
-13776,-436,2484,-200,248,-180,2024-01-18 09:43:31,0.0
-13844,-436,2484,-199,248,-194,2024-01-18 09:43:31,0.0
-13708,-352,2472,-191,296,-182,2024-01-18 09:43:31,0.0
-13792,-424,2464,-180,330,-200,2024-01-18 09:43:31,0.0
-13760,-408,2448,-182,308,-177,2024-01-18 09:43:31,0.0
-13904,-524,2500,-190,320,-155,2024-01-18 09:43:31,0.0
-13740,-532,2556,-153,362,-177,2024-01-18 09:43:31,0.0
-13892,-404,2504,-188,444,-173,2024-01-18 09:43:31,0.0
-13884,-336,2440,-213,420,-187,2024-01-18 09:43:31,0.0
-13868,-412,2504,-212,383,-189,2024-01-18 09:43:31,0.0
-13832,-420,2460,-203,369,-177,2024-01-18 09:43:31,0.0
-13840,-468,2480,-176,269,-192,2024-01-18 09:43:31,0.0
-13912,-544,2444,-203,268,-190,2024-01-18 09:43:31,0.0
-13852,-392,2424,-192,307,-156,2024-01-18 09:43:31,0.0
-13752,-456,2388,-200,377,-194,2024-01-18 09:43:31,0.0
-13836,-524,2396,-197,418,-176,2024-01-18 09:43:31,0.0
-13828,-440,2444,-212,491,-191,2024-01-18 09:43:31,0.0
-13796,-368,2336,-220,534,-202,2024-01-18 09:43:31,0.0
-13828,-364,2356,-200,358,-184,2024-01-18 09:43:31,0.0
-13876,-448,2380,-199,302,-188,2024-01-18 09:43:31,0.0
-13820,-380,2452,-207,374,-171,2024-01-18 09:43:31,0.0
-13892,-496,2336,-185,318,-178,2024-01-18 09:43:31,0.0
-13760,-420,2360,-165,337,-165,2024-01-18 09:43:31,0.0
-13784,-428,2376,-187,333,-171,2024-01-18 09:43:31,0.0
-13776,-388,2464,-184,534,-181,2024-01-18 09:43:31,0.0
-13828,-424,2572,-147,795,-195,2024-01-18 09:43:31,0.0
-13808,-304,2372,-120,864,-213,2024-01-18 09:43:31,0.0
-13896,-424,2136,-226,203,-149,2024-01-18 09:43:31,0.0
-13780,-556,2428,-296,297,-189,2024-01-18 09:43:31,0.0
-13768,-508,2372,-259,467,-195,2024-01-18 09:43:31,0.0
-13916,-544,2472,-200,305,-175,2024-01-18 09:43:31,0.0
-13864,-560,2420,-188,112,-194,2024-01-18 09:43:31,0.0
-13836,-480,2332,-154,145,-180,2024-01-18 09:43:31,0.0
-13848,-388,2356,-173,228,-183,2024-01-18 09:43:31,0.0
-13912,-480,2392,-167,247,-184,2024-01-18 09:43:31,0.0
-13828,-572,2252,-179,150,-196,2024-01-18 09:43:31,0.0
-13868,-368,2336,-179,220,-183,2024-01-18 09:43:31,0.0
-13800,-424,2408,-158,112,-173,2024-01-18 09:43:31,0.0
-13836,-380,2372,-147,236,-191,2024-01-18 09:43:31,0.0
-13904,-412,2236,-178,261,-197,2024-01-18 09:43:31,0.0
-13896,-372,2220,-185,232,-192,2024-01-18 09:43:31,0.0
-13852,-496,2472,-186,247,-181,2024-01-18 09:43:31,0.0
-13848,-496,2340,-167,219,-198,2024-01-18 09:43:31,0.0
-13788,-476,2312,-165,258,-170,2024-01-18 09:43:31,0.0
-13816,-468,2508,-167,253,-193,2024-01-18 09:43:31,0.0
-13872,-468,2308,-148,231,-193,2024-01-18 09:43:31,0.0
-13944,-476,2216,-154,155,-208,2024-01-18 09:43:31,0.0
-13864,-444,2248,-195,259,-168,2024-01-18 09:43:31,0.0
-13852,-432,2260,-173,206,-175,2024-01-18 09:43:31,0.0
-13860,-404,2216,-151,294,-184,2024-01-18 09:43:31,0.0
-13924,-420,2288,-171,296,-192,2024-01-18 09:43:31,0.0
-13840,-464,2120,-204,160,-187,2024-01-18 09:43:31,0.0
-13780,-440,2316,-250,-63,-178,2024-01-18 09:43:31,0.0
-13768,-500,2508,-184,266,-185,2024-01-18 09:43:31,0.0
-13872,-416,2188,-170,150,-199,2024-01-18 09:43:31,0.0
-13684,-536,2260,-169,187,-198,2024-01-18 09:43:31,0.0
-13796,-524,2212,-168,220,-165,2024-01-18 09:43:31,0.0
-13800,-388,2376,-160,248,-179,2024-01-18 09:43:32,0.0
-13864,-388,2168,-152,184,-169,2024-01-18 09:43:32,0.0
-13872,-500,2484,-190,282,-179,2024-01-18 09:43:32,0.0
-13756,-432,2236,-170,198,-172,2024-01-18 09:43:32,0.0
-13912,-516,2296,-146,184,-199,2024-01-18 09:43:32,0.0
-13696,-476,2168,-147,193,-166,2024-01-18 09:43:32,0.0
-13832,-396,2384,-169,208,-187,2024-01-18 09:43:32,0.0
-13820,-468,2380,-192,173,-195,2024-01-18 09:43:32,0.0
-13716,-364,2224,-163,162,-184,2024-01-18 09:43:32,0.0
-13744,-548,2272,-165,182,-186,2024-01-18 09:43:32,0.0
-13912,-464,2152,-145,179,-206,2024-01-18 09:43:32,0.0
-13864,-444,2216,-165,138,-176,2024-01-18 09:43:32,0.0
-13856,-444,2200,-176,185,-199,2024-01-18 09:43:32,0.0
-13780,-440,2232,-189,217,-190,2024-01-18 09:43:32,0.0
-13768,-496,2160,-189,164,-179,2024-01-18 09:43:32,0.0
-13936,-464,2308,-169,238,-183,2024-01-18 09:43:32,0.0
-14032,-500,2220,-195,70,-178,2024-01-18 09:43:32,0.0
-13840,-452,2408,-203,25,-194,2024-01-18 09:43:32,0.0
-13752,-364,2396,-180,140,-190,2024-01-18 09:43:32,0.0
-13964,-384,2224,-175,199,-206,2024-01-18 09:43:32,0.0
-13756,-468,2468,-173,234,-210,2024-01-18 09:43:32,0.0
-13880,-352,2396,-139,187,-185,2024-01-18 09:43:32,0.0
-13884,-440,2296,-164,227,-177,2024-01-18 09:43:32,0.0
-13784,-332,2276,-170,226,-185,2024-01-18 09:43:32,0.0
-13948,-452,2332,-171,272,-182,2024-01-18 09:43:32,0.0
-13828,-436,2260,-189,150,-192,2024-01-18 09:43:32,0.0
-13860,-524,2188,-168,205,-191,2024-01-18 09:43:32,0.0
-13932,-460,2076,-234,-96,-190,2024-01-18 09:43:32,0.0
-13788,-384,2384,-292,-298,-193,2024-01-18 09:43:32,0.0
-13740,-444,2636,-186,192,-179,2024-01-18 09:43:32,0.0
-13808,-440,2192,-196,192,-188,2024-01-18 09:43:32,0.0
-13944,-412,2316,-190,246,-182,2024-01-18 09:43:32,0.0
-13888,-424,2372,-146,145,-197,2024-01-18 09:43:32,0.0
-13752,-420,2272,-168,173,-175,2024-01-18 09:43:32,0.0
-13812,-396,2364,-180,241,-184,2024-01-18 09:43:32,
-13848,-452,2304,-186,216,-189,2024-01-18 09:43:32,0.0
-13808,-372,2316,-169,188,-205,2024-01-18 09:43:32,0.0
-13896,-448,2300,-185,295,-187,2024-01-18 09:43:32,0.0
-13764,-452,2408,-184,362,-178,2024-01-18 09:43:32,0.0
-13740,-436,2244,-210,326,-177,2024-01-18 09:43:32,0.0
-13944,-508,1964,-411,236,-218,2024-01-18 09:43:32,0.0
-13900,-472,2460,-344,114,-176,2024-01-18 09:43:32,0.0
-13732,-368,2384,-225,349,-180,2024-01-18 09:43:32,0.0
-13876,-516,2168,-196,284,-171,2024-01-18 09:43:32,0.0
-13788,-432,2128,-175,234,-179,2024-01-18 09:43:32,0.0
-13792,-380,2116,-173,326,-175,2024-01-18 09:43:32,0.0
-13896,-456,2256,-183,251,-209,2024-01-18 09:43:32,0.0
-13848,-412,2212,-172,205,-219,2024-01-18 09:43:32,0.0
-13812,-392,2392,-167,207,-177,2024-01-18 09:43:32,0.0
-13840,-488,2144,-154,138,-172,2024-01-18 09:43:32,0.0
-13860,-372,2284,-177,233,-191,2024-01-18 09:43:32,0.0
-13904,-456,2312,-182,215,-176,2024-01-18 09:43:32,0.0
-13840,-428,2292,-174,209,-190,2024-01-18 09:43:32,0.0
-13844,-476,2148,-177,174,-156,2024-01-18 09:43:32,0.0
-13872,-408,2344,-164,200,-183,2024-01-18 09:43:32,0.0
-13900,-448,2232,-179,227,-179,2024-01-18 09:43:32,0.0
-13860,-464,2236,-188,133,-184,2024-01-18 09:43:32,0.0
-13904,-492,2224,-169,253,-196,2024-01-18 09:43:32,0.0
-13704,-428,2368,-172,244,-184,2024-01-18 09:43:32,0.0
-13816,-572,2192,-163,214,-185,2024-01-18 09:43:32,0.0
-13836,-456,2356,-146,220,-177,2024-01-18 09:43:33,0.0
-13836,-512,2396,-149,301,-182,2024-01-18 09:43:33,0.0
-13836,-500,2328,-173,281,-189,2024-01-18 09:43:33,0.0
-13876,-424,2360,-170,190,-191,2024-01-18 09:43:33,0.0
-13896,-472,2268,-174,244,-181,2024-01-18 09:43:33,0.0
-13876,-392,2244,-172,269,-183,2024-01-18 09:43:33,0.0
-13864,-488,2100,-161,308,-163,2024-01-18 09:43:33,0.0
-13680,-384,2332,-192,286,-191,2024-01-18 09:43:33,0.0
-13848,-484,2132,-192,341,-177,2024-01-18 09:43:33,0.0
-13788,-384,2184,-182,304,-183,2024-01-18 09:43:33,0.0
-13880,-508,2324,-203,280,-192,2024-01-18 09:43:33,0.0
-13804,-468,2104,-188,192,-182,2024-01-18 09:43:33,0.0
-13876,-428,2268,-184,171,-174,2024-01-18 09:43:33,0.0
-13836,-436,2324,-189,209,-180,2024-01-18 09:43:33,0.0
-13848,-432,2240,-183,238,-196,2024-01-18 09:43:33,0.0
-13880,-540,2308,-171,153,-178,2024-01-18 09:43:33,0.0
-13756,-468,2320,-183,84,-194,2024-01-18 09:43:33,0.0
-13880,-488,2288,-132,134,-172,2024-01-18 09:43:33,0.0
-13792,-544,2284,-169,149,-170,2024-01-18 09:43:33,0.0
-13792,-420,2236,-169,194,-205,2024-01-18 09:43:33,0.0
-13700,-408,2288,-147,218,-193,2024-01-18 09:43:33,0.0
-13876,-472,2280,-176,193,-180,2024-01-18 09:43:33,0.0
-13784,-496,2256,-186,177,-194,2024-01-18 09:43:33,0.0
-13860,-444,2316,-191,167,-183,2024-01-18 09:43:33,0.0
-13840,-452,2192,-193,182,-178,2024-01-18 09:43:33,0.0
-13860,-476,2252,-172,197,-179,2024-01-18 09:43:33,0.0
-13856,-484,2268,-185,210,-166,2024-01-18 09:43:33,0.0
-13840,-436,2204,-148,161,-190,2024-01-18 09:43:33,0.0
-13848,-372,2152,-169,149,-179,2024-01-18 09:43:33,0.0
-13732,-432,2224,-158,147,-189,2024-01-18 09:43:33,0.0
-13860,-452,2284,-149,217,-186,2024-01-18 09:43:33,0.0
-13796,-468,2272,-175,95,-171,2024-01-18 09:43:33,0.0
-13760,-456,2220,-185,79,-178,2024-01-18 09:43:33,0.0
-13840,-476,2152,-150,-68,-174,2024-01-18 09:43:33,0.0
-13860,-400,2244,-175,-38,-162,2024-01-18 09:43:33,0.0
-13896,-480,1812,-312,-42,-175,2024-01-18 09:43:33,0.0
-13896,-476,2180,-422,-1178,-156,2024-01-18 09:43:33,0.0
-13676,-388,2720,-212,-523,-177,2024-01-18 09:43:33,0.0
-13940,-600,2400,-126,-563,-176,2024-01-18 09:43:33,0.0
-13872,-288,2356,-70,-1002,-164,2024-01-18 09:43:33,0.0
-13984,-308,792,-691,-2809,-93,2024-01-18 09:43:33,0.0
-13712,-376,2680,-631,-2967,-113,2024-01-18 09:43:33,0.0
-13572,-496,3536,-329,-1618,-144,2024-01-18 09:43:33,0.0
-13692,-320,2872,-179,-646,-181,2024-01-18 09:43:33,0.0
-14024,-360,2536,-179,-1131,-151,2024-01-18 09:43:33,0.0
-13716,-344,2972,-220,-1569,-149,2024-01-18 09:43:33,0.0
-13624,-500,2984,-192,-865,-194,2024-01-18 09:43:33,0.0
-13844,-396,2828,-246,-449,-150,2024-01-18 09:43:33,0.0
-13928,-456,2752,-260,-885,-182,2024-01-18 09:43:33,0.0
-13900,-452,2892,-290,-1443,-132,2024-01-18 09:43:33,0.0
-13924,-420,2844,-420,-2160,-127,2024-01-18 09:43:33,0.0
-13852,-392,2880,-741,-2533,-100,2024-01-18 09:43:33,0.0
-13624,-404,3164,-854,-1919,-85,2024-01-18 09:43:33,0.0
-13820,-528,3428,-1098,-1251,-67,2024-01-18 09:43:33,0.0
-13700,-508,3432,-934,-1072,-132,2024-01-18 09:43:33,0.0
-13732,-408,3544,-725,-1590,-98,2024-01-18 09:43:33,0.0
-13732,-404,3516,-680,-1494,-116,2024-01-18 09:43:33,0.0
-13936,-480,3432,-611,-1812,-113,2024-01-18 09:43:33,0.0
-13656,-364,3688,-746,-1445,-108,2024-01-18 09:43:33,0.0
-13764,-380,3844,-792,-1224,-102,2024-01-18 09:43:33,0.0
-13680,-476,3832,-748,-903,-103,2024-01-18 09:43:34,0.0
-13828,-288,3916,-519,-447,-140,2024-01-18 09:43:34,0.0
-13624,-364,3612,-659,-223,-117,2024-01-18 09:43:34,0.0
-13728,-500,4012,-625,-449,-137,2024-01-18 09:43:34,0.0
-13708,-464,4104,-570,-430,-130,2024-01-18 09:43:34,0.0
-13688,-416,4032,-561,16,-138,2024-01-18 09:43:34,0.0
-13700,-500,3956,-474,9,-136,2024-01-18 09:43:34,0.0
-13848,-444,3880,-413,-112,-159,2024-01-18 09:43:34,0.0
-13776,-416,3884,-384,-339,-152,2024-01-18 09:43:34,0.0
-13640,-348,3552,-653,-15,-128,2024-01-18 09:43:34,0.0
-13700,-364,3940,-667,186,-117,2024-01-18 09:43:34,0.0
-13816,-280,3464,-1242,560,-74,2024-01-18 09:43:34,0.0
-15504,-844,4864,-720,-4745,12,2024-01-18 09:43:34,0.0
-13624,-580,4216,-696,-5929,-13,2024-01-18 09:43:34,0.0
-13468,-472,4664,-612,-6207,-8,2024-01-18 09:43:34,
-13692,-576,4892,-457,-5438,-25,2024-01-18 09:43:34,0.0
-13452,-464,4892,-385,-4579,-59,2024-01-18 09:43:34,0.0
-13356,-488,5048,-502,-3536,-71,2024-01-18 09:43:34,0.0
-13500,-420,5432,-381,-2768,-101,2024-01-18 09:43:34,0.0
-13444,-452,5536,-396,-2034,-91,2024-01-18 09:43:34,0.0
-13736,-432,5352,-304,-2212,-107,2024-01-18 09:43:34,0.0
-13444,-388,5032,-329,-2879,-99,2024-01-18 09:43:34,0.0
-13724,-612,5280,-395,-3824,-66,2024-01-18 09:43:34,0.0
-13476,-416,5344,-453,-4455,-33,2024-01-18 09:43:34,0.0
-13568,-480,5424,-335,-5548,-41,2024-01-18 09:43:34,0.0
-13624,-500,5700,-473,-6489,-19,2024-01-18 09:43:34,0.0
-13364,-408,5956,-688,-6884,91,2024-01-18 09:43:34,0.0
-13140,-416,6980,-1059,-4526,137,2024-01-18 09:43:34,0.0
-13456,-468,7620,-482,-4347,-9,2024-01-18 09:43:34,0.0
-13168,-300,6536,-203,-5320,-99,2024-01-18 09:43:34,0.0
-13204,-432,6700,-170,-6818,-60,2024-01-18 09:43:34,0.0
-13156,-308,7216,-184,-7893,-46,2024-01-18 09:43:34,0.0
-12936,-216,7428,-179,-8790,-24,2024-01-18 09:43:34,0.0
-12668,-216,8016,-188,-8924,-15,2024-01-18 09:43:34,0.0
-12576,-136,8232,-214,-8636,-12,2024-01-18 09:43:34,0.0
-12400,-696,8900,-194,-7384,-1,2024-01-18 09:43:34,0.0
-12680,-324,8692,23,-8531,-65,2024-01-18 09:43:34,0.0
-12572,-504,8832,-125,-9842,-1,2024-01-18 09:43:34,0.0
-12148,-324,9648,-173,-10178,74,2024-01-18 09:43:34,0.0
-12136,-508,9904,-175,-9724,83,2024-01-18 09:43:34,0.0
-12000,-240,9728,-220,-10328,108,2024-01-18 09:43:34,0.0
-11948,-324,9996,-465,-11100,277,2024-01-18 09:43:34,0.0
-11172,-188,10480,-861,-10633,461,2024-01-18 09:43:34,0.0
-11112,-456,12176,-995,-9462,418,2024-01-18 09:43:34,0.0
-11040,-8,10636,-1197,-8426,491,2024-01-18 09:43:34,0.0
-10424,-220,11908,-810,-9298,277,2024-01-18 09:43:34,0.0
-10208,-424,12604,-960,-7215,385,2024-01-18 09:43:34,0.0
-10368,-352,11972,-1275,-6616,610,2024-01-18 09:43:34,0.0
-9968,-1032,11384,-2023,-12620,1926,2024-01-18 09:43:34,0.0
-10972,212,11708,-1868,-10316,1158,2024-01-18 09:43:34,0.0
-10324,-492,12608,-2472,-15462,2120,2024-01-18 09:43:34,0.0
-9864,-196,13052,-2810,-19815,2523,2024-01-18 09:43:34,0.0
-9272,-232,13324,-3992,-25501,4025,2024-01-18 09:43:34,0.0
-8028,16,13664,-4736,-30538,4990,2024-01-18 09:43:34,0.0
-5684,-620,15592,-5120,-30797,5193,2024-01-18 09:43:34,0.0
-3212,-612,20708,-3446,-19542,2368,2024-01-18 09:43:34,0.0
-3248,-792,19704,-520,-1852,-113,2024-01-18 09:43:34,0.0
-6388,-268,15976,-112,1037,-112,2024-01-18 09:43:34,0.0
-6680,-680,15524,-600,-2656,133,2024-01-18 09:43:34,0.0
-5412,-272,16964,-645,-2952,186,2024-01-18 09:43:34,0.0
-5780,-472,16440,-563,-2243,227,2024-01-18 09:43:35,0.0
-5864,-460,16456,-761,-3756,416,2024-01-18 09:43:35,0.0
-5288,-496,17492,-732,-3502,291,2024-01-18 09:43:35,0.0
-5228,-520,17240,-443,-1715,75,2024-01-18 09:43:35,0.0
-5308,-392,16464,-412,-1617,176,2024-01-18 09:43:35,0.0
-5300,-396,17060,-201,-1596,37,2024-01-18 09:43:35,0.0
-5872,-312,16324,-218,-3415,571,2024-01-18 09:43:35,0.0
-5028,-384,15516,-848,-9274,1566,2024-01-18 09:43:35,0.0
-3632,-448,18636,-570,-5982,752,2024-01-18 09:43:35,0.0
-4928,-52,16468,-341,-5974,976,2024-01-18 09:43:35,0.0
-4612,-588,17316,-800,-8051,1492,2024-01-18 09:43:35,0.0
-3780,-1044,17336,-722,-8227,1632,2024-01-18 09:43:35,0.0
-3956,-244,17328,-1013,-10404,2185,2024-01-18 09:43:35,0.0
-2836,-184,18356,-1225,-9969,1943,2024-01-18 09:43:35,0.0
-1996,-676,19280,-618,-4860,954,2024-01-18 09:43:35,0.0
-2640,-644,18056,-314,-2859,779,2024-01-18 09:43:35,0.0
-2604,-356,18144,-560,-2861,958,2024-01-18 09:43:35,0.0
-2456,-240,18368,-323,-1488,564,2024-01-18 09:43:35,0.0
-2580,-220,18148,-78,-593,48,2024-01-18 09:43:35,0.0
-2608,-364,18184,-75,-784,-188,2024-01-18 09:43:35,0.0
-2444,-176,18232,-55,-661,-188,2024-01-18 09:43:35,0.0
-2464,-348,18140,-41,-183,-144,2024-01-18 09:43:35,0.0
-2656,-288,17976,-99,-845,-149,2024-01-18 09:43:35,0.0
-2664,140,17996,-117,-1695,-298,2024-01-18 09:43:35,0.0
-2896,-216,17396,-174,-3451,-275,2024-01-18 09:43:35,0.0
-2464,-764,17348,-621,-6513,556,2024-01-18 09:43:35,0.0
-1144,-1416,18816,-808,-5726,845,2024-01-18 09:43:35,0.0
-1612,-148,18348,-672,-3978,792,2024-01-18 09:43:35,0.0
-1620,-416,18292,-635,-4178,761,2024-01-18 09:43:35,0.0
-1192,-440,18800,-532,-2612,426,2024-01-18 09:43:35,0.0
-1312,-332,18464,-280,-1310,-80,2024-01-18 09:43:35,0.0
-1180,68,18544,-172,-116,-368,2024-01-18 09:43:35,0.0
-1328,248,18472,-30,171,-149,2024-01-18 09:43:35,0.0
-1168,-196,18780,134,606,-232,2024-01-18 09:43:35,0.0
-1152,-408,18296,197,756,-125,2024-01-18 09:43:35,0.0
-1764,-1040,17992,85,-1266,-299,2024-01-18 09:43:35,0.0
-2492,-132,17004,-245,-5516,175,2024-01-18 09:43:35,0.0
-3568,-328,16040,-1011,-17413,2203,2024-01-18 09:43:35,0.0
-2492,-1132,15180,-2109,-31586,4127,2024-01-18 09:43:35,0.0
-3436,-628,17280,-3040,-32768,5774,2024-01-18 09:43:35,0.0
960,-1464,1128,1983,17958,7301,2024-01-18 09:43:35,0.0
32767,6560,32767,2932,19505,-1681,2024-01-18 09:43:35,0.0
-428,328,17024,428,-13436,976,2024-01-18 09:43:35,0.0
6380,-1896,28268,-26,5123,-628,2024-01-18 09:43:35,0.0
5724,-272,18812,-87,-973,-66,2024-01-18 09:43:35,0.0
2012,-552,19428,-54,-1297,-46,2024-01-18 09:43:35,0.0
3092,-408,18728,-144,-4,-200,2024-01-18 09:43:35,0.0
3044,-256,18808,-162,246,-226,2024-01-18 09:43:35,0.0
2764,-372,18904,-172,227,-194,2024-01-18 09:43:35,0.0
2844,-464,18884,-120,202,-196,2024-01-18 09:43:35,0.0
2816,-464,18892,-110,211,-217,2024-01-18 09:43:35,0.0
2844,-340,19104,-91,210,-241,2024-01-18 09:43:35,0.0
2788,-404,19020,-101,266,-253,2024-01-18 09:43:35,0.0
2852,-444,18972,-58,294,-235,2024-01-18 09:43:35,0.0
2824,-180,18896,15,338,-294,2024-01-18 09:43:35,
2944,-364,18988,107,433,-199,2024-01-18 09:43:35,0.0
2832,-380,19004,37,350,-246,2024-01-18 09:43:35,0.0
2688,-160,19068,53,364,-239,2024-01-18 09:43:35,0.0
2896,-524,18944,-23,298,-170,2024-01-18 09:43:35,0.0
2864,-248,19084,-28,297,-98,2024-01-18 09:43:35,0.0
2712,-204,18952,91,402,-87,2024-01-18 09:43:36,0.0
2432,0,19116,135,480,-293,2024-01-18 09:43:36,0.0
2940,-500,19052,22,416,-249,2024-01-18 09:43:36,0.0
2804,-172,18920,-44,355,-179,2024-01-18 09:43:36,0.0
2868,-356,19064,-59,351,-258,2024-01-18 09:43:36,0.0
2824,-152,18952,-44,481,-264,2024-01-18 09:43:36,0.0
2560,68,19084,4,567,-276,2024-01-18 09:43:36,0.0
2444,-332,18972,-56,333,-10,2024-01-18 09:43:36,0.0
2932,-408,18964,-146,256,-108,2024-01-18 09:43:36,0.0
2812,-412,18904,-156,213,-131,2024-01-18 09:43:36,0.0
2832,-208,18932,-162,215,-125,2024-01-18 09:43:36,0.0
2796,-288,18840,-158,186,-93,2024-01-18 09:43:36,0.0
2796,-328,19168,-158,201,-156,2024-01-18 09:43:36,0.0
2792,-220,18896,-168,186,-121,2024-01-18 09:43:36,0.0
2740,-356,18940,-169,174,-143,2024-01-18 09:43:36,0.0
2796,-260,19032,-176,242,-180,2024-01-18 09:43:36,0.0
2808,-328,19012,-160,183,-187,2024-01-18 09:43:36,0.0
2768,-312,18960,-161,242,236,2024-01-18 09:43:36,0.0
2952,-424,19012,-176,218,-123,2024-01-18 09:43:36,0.0
2792,-372,19112,-174,196,-192,2024-01-18 09:43:36,0.0
1780,164,19116,-159,125,590,2024-01-18 09:43:36,0.0
3036,-236,18948,-170,197,545,2024-01-18 09:43:36,0.0
3528,-776,19008,-178,186,154,2024-01-18 09:43:36,0.0
2656,-236,19036,-177,222,-142,2024-01-18 09:43:36,0.0
2824,-400,19084,-183,206,-64,2024-01-18 09:43:36,0.0
2772,-316,18872,-167,171,228,2024-01-18 09:43:36,0.0
3276,-308,19008,-157,189,-208,2024-01-18 09:43:36,0.0
2736,-260,19084,-158,166,-173,2024-01-18 09:43:36,0.0
2920,-228,18964,-149,164,-176,2024-01-18 09:43:36,0.0
2696,36,19000,-160,200,-233,2024-01-18 09:43:36,0.0
2992,-264,19000,-163,195,-410,2024-01-18 09:43:36,0.0
2740,-636,18948,-155,144,-372,2024-01-18 09:43:36,0.0
3256,-312,18992,-169,190,-612,2024-01-18 09:43:36,0.0
1912,-192,19048,-167,161,-143,2024-01-18 09:43:36,0.0
2748,-220,18840,-169,144,-82,2024-01-18 09:43:36,0.0
2788,-212,18956,-171,163,-92,2024-01-18 09:43:36,0.0
2668,-264,19104,-187,193,-174,2024-01-18 09:43:36,0.0
2724,-212,18968,-182,209,-193,2024-01-18 09:43:36,0.0
2448,-316,19028,-166,179,3,2024-01-18 09:43:36,0.0
1940,-780,19048,-226,115,955,2024-01-18 09:43:36,0.0
2776,-608,19040,-183,146,1098,2024-01-18 09:43:36,0.0
2796,-728,18852,-164,273,832,2024-01-18 09:43:36,0.0
2732,-744,19036,-177,150,736,2024-01-18 09:43:36,0.0
2692,-784,18780,-162,285,757,2024-01-18 09:43:36,0.0
2568,-696,18836,-179,143,710,2024-01-18 09:43:36,0.0
2480,-720,19128,-144,217,701,2024-01-18 09:43:36,0.0
2556,-596,18924,-161,181,727,2024-01-18 09:43:36,0.0
2748,-592,18804,-142,300,744,2024-01-18 09:43:36,0.0
2424,-512,18848,-197,133,807,2024-01-18 09:43:36,0.0
2236,-580,19252,-179,28,1082,2024-01-18 09:43:36,0.0
2420,120,18972,-165,248,1275,2024-01-18 09:43:36,0.0
2868,28,18828,-217,131,1160,2024-01-18 09:43:36,0.0
2652,-552,18496,-210,350,1086,2024-01-18 09:43:36,0.0
2676,-524,19296,-152,10,1193,2024-01-18 09:43:36,0.0
2764,-240,19188,-214,246,1309,2024-01-18 09:43:36,0.0
3332,332,18872,-138,95,1789,2024-01-18 09:43:36,0.0
3420,-276,18624,-184,292,2030,2024-01-18 09:43:36,0.0
2680,-236,19420,-170,-7,1775,2024-01-18 09:43:36,0.0
5908,-524,19112,-26,691,-995,2024-01-18 09:43:36,0.0
2960,3308,19204,5,2833,-4204,2024-01-18 09:43:37,0.0
4100,-208,19280,233,2993,-4859,2024-01-18 09:43:37,0.0
1944,-120,19268,362,2395,-4896,2024-01-18 09:43:37,0.0
1824,-712,18808,394,2011,-3418,2024-01-18 09:43:37,0.0
2092,-516,18812,37,810,-2457,2024-01-18 09:43:37,0.0
2140,284,19048,180,997,-2370,2024-01-18 09:43:37,0.0
