acceleration_x,acceleration_y,acceleration_z,gyroscope_x,gyroscope_y,gyroscope_z,timestamp,label
-14028,-952,3424,6,528,-285,2024-01-24 11:07:08,0.0
-14152,-936,3516,21,83,-221,2024-01-24 11:07:08,0.0
-14068,-908,3584,58,-72,-203,2024-01-24 11:07:08,0.0
-13920,-820,3520,30,-184,-194,2024-01-24 11:07:08,0.0
-13704,-900,3472,24,-267,-168,2024-01-24 11:07:08,0.0
-13680,-868,3592,-6,-221,-144,2024-01-24 11:07:08,0.0
-13608,-752,3728,-43,4,-174,2024-01-24 11:07:08,0.0
-13748,-804,3680,-128,67,-163,2024-01-24 11:07:08,0.0
-13728,-684,3780,-165,4,-159,2024-01-24 11:07:08,0.0
-13588,-760,3784,-205,50,-185,2024-01-24 11:07:08,0.0
-13624,-768,3808,-232,211,-227,2024-01-24 11:07:08,0.0
-13592,-788,3844,-241,336,-244,2024-01-24 11:07:08,0.0
-13876,-712,3628,-303,412,-235,2024-01-24 11:07:08,0.0
-13776,-760,3608,-310,408,-206,2024-01-24 11:07:08,0.0
-13752,-708,3688,-284,377,-177,2024-01-24 11:07:09,0.0
-13904,-792,3824,-289,342,-192,2024-01-24 11:07:09,0.0
-13824,-804,3832,-295,276,-175,2024-01-24 11:07:09,0.0
-13772,-952,3764,-208,281,-156,2024-01-24 11:07:09,0.0
-13824,-864,3972,-198,226,-140,2024-01-24 11:07:09,0.0
-13912,-872,3744,-190,201,-169,2024-01-24 11:07:09,0.0
-13712,-724,3792,-149,184,-166,2024-01-24 11:07:09,0.0
-13748,-784,3660,-129,231,-157,2024-01-24 11:07:09,0.0
-13672,-828,3596,-114,274,-177,2024-01-24 11:07:09,0.0
-13796,-772,3640,-156,320,-170,2024-01-24 11:07:09,0.0
-13720,-720,3764,-172,336,-174,2024-01-24 11:07:09,0.0
-13656,-700,3728,-228,360,-152,2024-01-24 11:07:09,0.0
-13716,-804,3796,-254,372,-143,2024-01-24 11:07:09,0.0
-13848,-736,3584,-322,331,-131,2024-01-24 11:07:09,0.0
-13752,-788,3696,-349,276,-125,2024-01-24 11:07:09,0.0
-13792,-856,3572,-321,333,-122,2024-01-24 11:07:09,0.0
-13852,-928,3828,-338,312,-115,2024-01-24 11:07:09,0.0
-13840,-916,3808,-297,273,-118,2024-01-24 11:07:09,0.0
-13736,-912,3708,-282,294,-153,2024-01-24 11:07:09,0.0
-13748,-912,3776,-240,310,-167,2024-01-24 11:07:09,0.0
-13652,-900,3684,-194,295,-223,2024-01-24 11:07:09,0.0
-13660,-932,3696,-188,320,-213,2024-01-24 11:07:09,0.0
-13776,-820,3636,-148,404,-209,2024-01-24 11:07:09,0.0
-13824,-840,3872,-128,412,-185,2024-01-24 11:07:09,0.0
-13880,-876,3836,-185,385,-207,2024-01-24 11:07:09,0.0
-13888,-872,3588,-142,327,-186,2024-01-24 11:07:09,0.0
-13748,-880,3692,-158,337,-191,2024-01-24 11:07:09,0.0
-13876,-780,3748,-154,332,-208,2024-01-24 11:07:09,0.0
-13792,-820,3580,-99,315,-216,2024-01-24 11:07:09,0.0
-13708,-860,3596,-102,312,-250,2024-01-24 11:07:09,0.0
-13764,-900,3640,-121,373,-270,2024-01-24 11:07:09,0.0
-13708,-892,3592,-110,477,-294,2024-01-24 11:07:09,0.0
-13800,-920,3620,-88,493,-315,2024-01-24 11:07:09,0.0
-13828,-924,3592,-119,481,-304,2024-01-24 11:07:09,0.0
-13764,-888,3500,-94,452,-257,2024-01-24 11:07:09,0.0
-13896,-804,3664,-131,413,-250,2024-01-24 11:07:09,0.0
-13728,-776,3612,-155,408,-229,2024-01-24 11:07:09,0.0
-13660,-704,3588,-158,409,-215,2024-01-24 11:07:09,0.0
-13796,-804,3528,-166,412,-194,2024-01-24 11:07:09,0.0
-13676,-916,3716,-180,422,-172,2024-01-24 11:07:09,0.0
-13732,-904,3464,-206,433,-187,2024-01-24 11:07:09,0.0
-13704,-824,3492,-209,374,-220,2024-01-24 11:07:09,0.0
-13796,-748,3544,-315,229,-210,2024-01-24 11:07:09,0.0
-13828,-796,3648,-334,144,-212,2024-01-24 11:07:09,0.0
-13808,-760,3612,-376,108,-213,2024-01-24 11:07:09,0.0
-13728,-900,3608,-382,62,-219,2024-01-24 11:07:09,0.0
-13756,-812,3604,-436,81,-213,2024-01-24 11:07:09,0.0
-13760,-796,3660,-466,81,-203,2024-01-24 11:07:09,0.0
-13620,-756,3536,-503,56,-205,2024-01-24 11:07:09,0.0
-13732,-880,3688,-514,91,-216,2024-01-24 11:07:09,0.0
-13724,-972,3680,-462,68,-255,2024-01-24 11:07:09,0.0
-13756,-1056,3720,-443,106,-263,2024-01-24 11:07:09,0.0
-13640,-976,3636,-395,148,-280,2024-01-24 11:07:09,0.0
-13752,-984,3688,-329,170,-306,2024-01-24 11:07:09,0.0
-13720,-976,3520,-299,174,-281,2024-01-24 11:07:09,0.0
-13824,-900,3500,-279,192,-260,2024-01-24 11:07:09,0.0
-13644,-1032,3592,-258,178,-248,2024-01-24 11:07:09,0.0
-13724,-948,3520,-200,214,-247,2024-01-24 11:07:09,0.0
-13700,-952,3612,-166,264,-237,2024-01-24 11:07:10,0.0
-13820,-888,3692,-102,236,-227,2024-01-24 11:07:10,0.0
-13756,-884,3588,-55,240,-241,2024-01-24 11:07:10,0.0
-13756,-944,3448,-52,302,-256,2024-01-24 11:07:10,0.0
-13692,-972,3528,-53,367,-226,2024-01-24 11:07:10,0.0
-13780,-812,3560,-33,414,-218,2024-01-24 11:07:10,0.0
-13848,-852,3536,-44,355,-237,2024-01-24 11:07:10,0.0
-13796,-884,3568,-78,253,-253,2024-01-24 11:07:10,0.0
-13744,-844,3580,-119,170,-282,2024-01-24 11:07:10,0.0
-13788,-916,3592,-62,224,-314,2024-01-24 11:07:10,0.0
-13820,-920,3484,-27,241,-352,2024-01-24 11:07:10,0.0
-13836,-876,3528,-11,265,-323,2024-01-24 11:07:10,0.0
-13812,-768,3716,3,287,-265,2024-01-24 11:07:10,0.0
-13828,-636,3584,-24,266,-245,2024-01-24 11:07:10,0.0
-13720,-600,3616,-40,236,-209,2024-01-24 11:07:10,0.0
-13712,-708,3644,-108,256,-210,2024-01-24 11:07:10,0.0
-13676,-760,3604,-142,246,-190,2024-01-24 11:07:10,0.0
-13788,-800,3512,-195,174,-138,2024-01-24 11:07:10,0.0
-13824,-776,3548,-262,168,-126,2024-01-24 11:07:10,0.0
-13732,-888,3648,-287,194,-104,2024-01-24 11:07:10,0.0
-13712,-956,3548,-315,245,-136,2024-01-24 11:07:10,0.0
-13908,-988,3568,-332,231,-159,2024-01-24 11:07:10,0.0
-13836,-920,3608,-340,198,-197,2024-01-24 11:07:10,0.0
-13696,-1004,3612,-322,154,-210,2024-01-24 11:07:10,0.0
-13808,-964,3704,-258,142,-198,2024-01-24 11:07:10,0.0
-13752,-920,3680,-204,152,-194,2024-01-24 11:07:10,0.0
-13708,-1008,3776,-152,254,-215,2024-01-24 11:07:10,0.0
-13760,-1008,3584,-89,186,-235,2024-01-24 11:07:10,
-13776,-988,3524,-109,154,-226,2024-01-24 11:07:10,0.0
-13844,-1000,3556,-72,184,-238,2024-01-24 11:07:10,0.0
-13756,-1004,3532,-27,228,-232,2024-01-24 11:07:10,0.0
-13724,-1000,3504,-7,210,-214,2024-01-24 11:07:10,0.0
-13676,-844,3500,36,209,-211,2024-01-24 11:07:10,0.0
-13748,-880,3532,67,181,-201,2024-01-24 11:07:10,0.0
-13836,-940,3544,86,145,-202,2024-01-24 11:07:10,0.0
-13704,-840,3552,50,122,-196,2024-01-24 11:07:10,0.0
-13756,-884,3648,29,205,-204,2024-01-24 11:07:10,0.0
-13748,-840,3420,-54,237,-188,2024-01-24 11:07:10,0.0
-13784,-908,3548,-85,215,-188,2024-01-24 11:07:10,0.0
-13820,-888,3552,-124,227,-182,2024-01-24 11:07:10,0.0
-13680,-1020,3592,-138,276,-161,2024-01-24 11:07:10,0.0
-13724,-912,3656,-112,223,-162,2024-01-24 11:07:10,0.0
-13812,-1020,3404,-104,252,-194,2024-01-24 11:07:10,0.0
-13900,-1060,3372,-120,259,-148,2024-01-24 11:07:10,0.0
-13720,-996,3528,-128,284,-159,2024-01-24 11:07:10,0.0
-13624,-760,3724,-128,269,-139,2024-01-24 11:07:10,0.0
-13688,-952,3604,-149,324,-126,2024-01-24 11:07:10,0.0
-13716,-960,3612,-184,342,-145,2024-01-24 11:07:10,0.0
-13720,-860,3588,-173,326,-168,2024-01-24 11:07:10,0.0
-13756,-840,3528,-140,321,-175,2024-01-24 11:07:10,0.0
-13844,-976,3512,-133,287,-165,2024-01-24 11:07:10,0.0
-13800,-924,3452,-128,218,-174,2024-01-24 11:07:10,0.0
-13680,-976,3496,-107,208,-165,2024-01-24 11:07:10,0.0
-13800,-988,3516,-74,240,-197,2024-01-24 11:07:10,0.0
-13764,-964,3492,-55,244,-187,2024-01-24 11:07:10,0.0
-13740,-948,3404,-69,269,-164,2024-01-24 11:07:10,0.0
-13848,-976,3504,-43,304,-167,2024-01-24 11:07:10,0.0
-13800,-924,3624,-47,294,-180,2024-01-24 11:07:10,0.0
-13884,-856,3580,-64,275,-193,2024-01-24 11:07:10,0.0
-13736,-884,3440,-98,292,-207,2024-01-24 11:07:11,0.0
-13760,-916,3476,-93,284,-208,2024-01-24 11:07:11,0.0
-13640,-964,3548,-101,272,-203,2024-01-24 11:07:11,0.0
-13736,-992,3572,-97,240,-188,2024-01-24 11:07:11,0.0
-13704,-896,3380,-104,263,-188,2024-01-24 11:07:11,0.0
-13872,-956,3276,-143,337,-155,2024-01-24 11:07:11,0.0
-13728,-972,3448,-143,362,-172,2024-01-24 11:07:11,0.0
-13816,-1068,3636,-137,321,-143,2024-01-24 11:07:11,0.0
-13692,-1020,3636,-118,352,-175,2024-01-24 11:07:11,0.0
-13728,-1024,3632,-40,404,-205,2024-01-24 11:07:11,0.0
-13704,-1020,3576,45,485,-215,2024-01-24 11:07:11,0.0
-13772,-1128,3552,85,456,-221,2024-01-24 11:07:11,0.0
-13784,-1204,3424,156,391,-263,2024-01-24 11:07:11,0.0
-13812,-1156,3388,208,326,-245,2024-01-24 11:07:11,0.0
-13848,-936,3548,224,329,-273,2024-01-24 11:07:11,0.0
-13860,-960,3396,180,344,-263,2024-01-24 11:07:11,0.0
-13896,-856,3452,144,363,-253,2024-01-24 11:07:11,0.0
-13740,-972,3388,141,371,-245,2024-01-24 11:07:11,0.0
-13772,-964,3560,130,358,-259,2024-01-24 11:07:11,0.0
-13780,-944,3508,83,319,-289,2024-01-24 11:07:11,0.0
-13676,-916,3492,85,337,-309,2024-01-24 11:07:11,0.0
-13720,-896,3232,20,359,-322,2024-01-24 11:07:11,0.0
-13672,-856,3296,-19,389,-307,2024-01-24 11:07:11,0.0
-13880,-900,3396,-121,349,-271,2024-01-24 11:07:11,0.0
-13840,-936,3320,-167,293,-260,2024-01-24 11:07:11,0.0
-13804,-984,3392,-195,221,-256,2024-01-24 11:07:11,0.0
-13728,-948,3404,-201,222,-241,2024-01-24 11:07:11,0.0
-13648,-1032,3308,-220,272,-219,2024-01-24 11:07:11,0.0
-13824,-972,3452,-224,348,-224,2024-01-24 11:07:11,0.0
-13724,-1028,3280,-268,355,-213,2024-01-24 11:07:11,0.0
-13876,-996,3324,-299,370,-178,2024-01-24 11:07:11,0.0
-13924,-944,3160,-365,411,-217,2024-01-24 11:07:11,0.0
-13784,-1072,3040,-382,476,-307,2024-01-24 11:07:11,0.0
-13836,-1200,3016,-258,632,-458,2024-01-24 11:07:11,0.0
-13888,-1412,2688,-156,587,-606,2024-01-24 11:07:11,0.0
-13800,-1628,2632,165,726,-779,2024-01-24 11:07:11,0.0
-13904,-1744,2368,511,1025,-1004,2024-01-24 11:07:11,0.0
-14096,-1876,2560,870,1125,-1162,2024-01-24 11:07:11,0.0
-14668,-1832,2196,1109,632,-1389,2024-01-24 11:07:11,0.0
-14440,-1756,2572,1196,131,-1355,2024-01-24 11:07:11,0.0
-13852,-1652,2524,1177,71,-1266,2024-01-24 11:07:11,0.0
-13828,-1492,1960,964,-68,-1039,2024-01-24 11:07:11,0.0
-13688,-1252,1792,772,-358,-573,2024-01-24 11:07:11,0.0
-13132,-1060,1904,700,-460,-404,2024-01-24 11:07:11,0.0
-13024,-640,1992,269,55,-112,2024-01-24 11:07:11,0.0
-13212,-380,1936,17,746,213,2024-01-24 11:07:11,0.0
-12980,-376,1920,-232,1236,418,2024-01-24 11:07:11,0.0
-12936,-548,1840,-453,2121,534,2024-01-24 11:07:11,0.0
-13012,-588,1496,-682,2612,667,2024-01-24 11:07:11,0.0
-13380,-1052,1544,-820,2789,792,2024-01-24 11:07:11,0.0
-13232,-1524,1404,-1024,3166,874,2024-01-24 11:07:11,0.0
-13656,-1992,1400,-1217,3417,1034,2024-01-24 11:07:11,0.0
-13164,-1708,1076,-1341,3435,1340,2024-01-24 11:07:11,0.0
-12404,-1368,800,-1550,3643,1407,2024-01-24 11:07:11,0.0
-11764,-864,896,-1922,5014,1211,2024-01-24 11:07:11,0.0
-12196,-564,1528,-2254,6228,937,2024-01-24 11:07:11,0.0
-12692,-344,1624,-2531,6807,684,2024-01-24 11:07:11,0.0
-13384,-128,1420,-2823,7092,344,2024-01-24 11:07:11,0.0
-13520,148,1736,-3104,6795,206,2024-01-24 11:07:11,0.0
-14116,-8,1996,-3318,6502,286,2024-01-24 11:07:12,0.0
-14924,-248,1844,-3460,5637,323,2024-01-24 11:07:12,0.0
-15220,-136,1772,-3405,4199,534,2024-01-24 11:07:12,0.0
-15116,132,1480,-3539,3234,688,2024-01-24 11:07:12,0.0
-14548,456,1324,-3622,2693,741,2024-01-24 11:07:12,0.0
-14368,428,432,-3744,2529,897,2024-01-24 11:07:12,0.0
-14300,400,-128,-3978,2296,1086,2024-01-24 11:07:12,0.0
-13532,232,-24,-4056,2484,1417,2024-01-24 11:07:12,0.0
-13828,268,464,-4070,3263,1703,2024-01-24 11:07:12,0.0
-13752,-4,784,-4209,3145,1697,2024-01-24 11:07:12,
-13468,-8,144,-4256,3197,1761,2024-01-24 11:07:12,0.0
-12844,112,-844,-4196,3354,1608,2024-01-24 11:07:12,0.0
-13148,72,-100,-4178,3690,1547,2024-01-24 11:07:12,0.0
-13812,200,220,-3954,3589,1654,2024-01-24 11:07:12,0.0
-13960,-196,336,-3791,2985,1888,2024-01-24 11:07:12,0.0
-13848,-328,396,-3867,2882,2151,2024-01-24 11:07:12,0.0
-13304,-512,-152,-3899,3447,2347,2024-01-24 11:07:12,0.0
-12956,16,-428,-3987,3706,1953,2024-01-24 11:07:12,0.0
-13916,440,600,-3767,2805,1516,2024-01-24 11:07:12,0.0
-14164,500,920,-3376,1534,1903,2024-01-24 11:07:12,0.0
-13700,268,548,-3304,1481,2601,2024-01-24 11:07:12,0.0
-12604,408,-68,-3614,2615,2964,2024-01-24 11:07:12,0.0
-12732,1536,-1428,-4103,3634,2926,2024-01-24 11:07:12,0.0
-13872,2460,-452,-4468,2888,2757,2024-01-24 11:07:12,0.0
-14216,2580,-504,-4731,1650,2902,2024-01-24 11:07:12,0.0
-13880,2080,-1068,-4996,1175,3713,2024-01-24 11:07:12,0.0
-12664,1416,-2024,-5418,2277,4405,2024-01-24 11:07:12,0.0
-12524,1384,-1468,-5201,3639,4195,2024-01-24 11:07:12,0.0
-13072,1404,-1084,-4694,3614,3864,2024-01-24 11:07:12,0.0
-13264,1552,-804,-4121,3134,3768,2024-01-24 11:07:12,0.0
-13152,1200,-304,-3345,2756,3741,2024-01-24 11:07:12,0.0
-12408,1356,-836,-2909,3814,3612,2024-01-24 11:07:12,0.0
-12524,2376,-1072,-2740,4657,3404,2024-01-24 11:07:12,0.0
-13048,3412,-1120,-2584,4765,3240,2024-01-24 11:07:12,0.0
-14740,3104,-1568,-2346,4067,3444,2024-01-24 11:07:12,0.0
-13996,2404,-2068,-2166,3009,3848,2024-01-24 11:07:12,0.0
-12860,3244,-2216,-1947,2868,3787,2024-01-24 11:07:12,0.0
-12408,3412,-1700,-1631,2219,3906,2024-01-24 11:07:12,0.0
-11764,3380,-1752,-1511,1486,3831,2024-01-24 11:07:12,0.0
-12108,3820,-1752,-1573,597,3734,2024-01-24 11:07:12,0.0
-12316,3804,-1688,-1608,-713,3731,2024-01-24 11:07:12,0.0
-12056,3596,-1464,-1455,-2319,3609,2024-01-24 11:07:12,0.0
-12044,3368,-1496,-1245,-4007,3137,2024-01-24 11:07:12,0.0
-11744,3512,-1908,-767,-5971,2635,2024-01-24 11:07:12,0.0
-12444,3948,-1908,-865,-7559,2527,2024-01-24 11:07:12,0.0
-12680,4704,-2280,-1350,-8390,2265,2024-01-24 11:07:12,0.0
-12644,4324,-2016,-1751,-8624,1788,2024-01-24 11:07:12,0.0
-12084,4156,-1328,-1714,-8540,1520,2024-01-24 11:07:12,0.0
-11852,3700,-116,-1392,-8456,1228,2024-01-24 11:07:12,0.0
-10980,3652,-68,-1357,-8268,901,2024-01-24 11:07:12,0.0
-11424,4020,140,-1533,-8827,535,2024-01-24 11:07:12,0.0
-12184,4300,88,-1627,-8953,512,2024-01-24 11:07:12,0.0
-12932,4640,696,-1700,-8169,478,2024-01-24 11:07:12,0.0
-13336,4984,1312,-1684,-8084,456,2024-01-24 11:07:12,0.0
-13160,4784,808,-1766,-8022,255,2024-01-24 11:07:12,0.0
-14232,4480,1604,-1672,-7672,299,2024-01-24 11:07:12,0.0
-15048,4628,1504,-1598,-7635,674,2024-01-24 11:07:12,0.0
-14412,5012,1276,-1440,-6626,531,2024-01-24 11:07:12,0.0
-14448,5812,1408,-1488,-4952,194,2024-01-24 11:07:12,0.0
-13668,5556,1576,-1673,-2985,-254,2024-01-24 11:07:13,0.0
-13560,5456,1848,-1891,-1411,-656,2024-01-24 11:07:13,0.0
-13788,5852,2548,-2061,-1071,-778,2024-01-24 11:07:13,0.0
-15604,5488,2452,-2623,-1685,-716,2024-01-24 11:07:13,0.0
-15844,4996,2452,-2664,-1126,-315,2024-01-24 11:07:13,0.0
-15200,4432,3036,-2215,-51,-49,2024-01-24 11:07:13,0.0
-14612,4348,3096,-2105,249,-181,2024-01-24 11:07:13,0.0
-14264,4724,3304,-1912,720,-280,2024-01-24 11:07:13,0.0
-13180,4816,3132,-1743,1377,-485,2024-01-24 11:07:13,0.0
-13392,5016,3480,-1352,1419,-573,2024-01-24 11:07:13,0.0
-14708,5144,3388,-1199,1148,-427,2024-01-24 11:07:13,0.0
-15432,5196,3536,-1148,82,-90,2024-01-24 11:07:13,0.0
-15112,5528,4360,-1014,-921,88,2024-01-24 11:07:13,0.0
-15348,6696,4008,-762,-1501,315,2024-01-24 11:07:13,0.0
-14968,5884,3968,-382,-1569,491,2024-01-24 11:07:13,0.0
-15128,5360,4012,244,-1073,323,2024-01-24 11:07:13,0.0
-15596,5232,3780,621,-209,-81,2024-01-24 11:07:13,0.0
-15720,5716,3512,688,-146,-396,2024-01-24 11:07:13,0.0
-15564,5944,3704,876,98,-616,2024-01-24 11:07:13,0.0
-15176,5948,3604,1125,296,-721,2024-01-24 11:07:13,0.0
-15180,5804,3696,1457,579,-862,2024-01-24 11:07:13,0.0
-15000,5876,3256,1786,240,-1025,2024-01-24 11:07:13,0.0
-15128,5812,3724,1895,435,-1195,2024-01-24 11:07:13,0.0
-14312,5852,3688,1868,647,-1314,2024-01-24 11:07:13,0.0
-14104,5460,3724,1971,1055,-1386,2024-01-24 11:07:13,0.0
-13648,5340,3420,2227,1203,-1318,2024-01-24 11:07:13,0.0
-13624,4976,3616,2237,1566,-1409,2024-01-24 11:07:13,0.0
-13696,4996,3604,2226,2094,-1848,2024-01-24 11:07:13,0.0
-13812,4676,3548,2309,2477,-2294,2024-01-24 11:07:13,0.0
-13732,4536,3168,2335,2363,-2592,2024-01-24 11:07:13,0.0
-13440,4292,3160,2147,1891,-3035,2024-01-24 11:07:13,0.0
-13632,4208,3336,2107,1785,-3353,2024-01-24 11:07:13,0.0
-13560,3680,3220,2137,2238,-3649,2024-01-24 11:07:13,0.0
-13572,3164,3124,2175,2746,-3948,2024-01-24 11:07:13,0.0
-13756,3508,2828,2303,3437,-3790,2024-01-24 11:07:13,0.0
-13548,2940,2764,2011,3407,-4108,2024-01-24 11:07:13,0.0
-13688,2736,2692,1882,2911,-4337,2024-01-24 11:07:13,0.0
-13856,2580,2508,2014,2548,-4438,2024-01-24 11:07:13,0.0
-13844,2304,1992,2023,2315,-4437,2024-01-24 11:07:13,0.0
-14660,2384,1552,1943,1917,-4491,2024-01-24 11:07:13,0.0
-15408,2524,1116,1788,750,-4475,2024-01-24 11:07:13,0.0
-15724,2856,1176,1646,-1052,-4162,2024-01-24 11:07:13,0.0
-14844,2636,1724,1652,-3424,-3808,2024-01-24 11:07:13,0.0
-14072,2220,2144,1975,-4675,-3784,2024-01-24 11:07:13,0.0
-13716,1972,2476,2133,-5089,-3817,2024-01-24 11:07:13,0.0
-13656,1952,2724,2091,-4860,-3693,2024-01-24 11:07:13,0.0
-13548,1808,2736,2165,-4027,-3717,2024-01-24 11:07:13,0.0
-13540,1792,2296,2289,-3549,-3736,2024-01-24 11:07:13,0.0
-13308,1636,2616,2479,-3484,-3805,2024-01-24 11:07:13,0.0
-12996,1644,2864,2779,-3428,-3873,2024-01-24 11:07:13,0.0
-12824,1488,2812,2764,-3356,-3756,2024-01-24 11:07:13,
-12008,1452,3096,2762,-2427,-3737,2024-01-24 11:07:13,0.0
-11580,1316,3248,3038,-1922,-3777,2024-01-24 11:07:13,0.0
-11708,1104,3156,3361,-1957,-3670,2024-01-24 11:07:13,0.0
-11476,1084,3180,3413,-1807,-3410,2024-01-24 11:07:13,0.0
-11252,1236,3052,3469,-1290,-3264,2024-01-24 11:07:13,0.0
-11564,1700,3272,3127,-796,-3011,2024-01-24 11:07:13,0.0
-11704,1888,3740,3167,-213,-3064,2024-01-24 11:07:13,0.0
-12268,1840,4480,3274,-270,-2954,2024-01-24 11:07:13,0.0
-12668,1392,4480,3352,-720,-3286,2024-01-24 11:07:14,0.0
-13336,800,4188,3204,-1721,-3304,2024-01-24 11:07:14,0.0
-13300,400,4208,2916,-2589,-3595,2024-01-24 11:07:14,0.0
-13432,332,4144,2721,-3503,-3682,2024-01-24 11:07:14,0.0
-12556,344,3984,2555,-3773,-3819,2024-01-24 11:07:14,0.0
-11980,316,3448,2355,-3642,-4055,2024-01-24 11:07:14,0.0
-11920,156,3636,2273,-3180,-3820,2024-01-24 11:07:14,0.0
-11808,-108,4184,2749,-2378,-3721,2024-01-24 11:07:14,0.0
-12372,-92,4576,3059,-1929,-3517,2024-01-24 11:07:14,0.0
-13164,340,3508,2915,-1929,-3300,2024-01-24 11:07:14,0.0
-13956,636,2892,2615,-1957,-2945,2024-01-24 11:07:14,0.0
-14532,812,2684,2526,-1977,-2645,2024-01-24 11:07:14,0.0
-14300,264,3408,2470,-1863,-2118,2024-01-24 11:07:14,0.0
-13672,-472,3788,2354,-1391,-1737,2024-01-24 11:07:14,0.0
-13340,-848,4408,2099,-873,-1691,2024-01-24 11:07:14,0.0
-13588,-1028,4000,1864,-711,-1912,2024-01-24 11:07:14,0.0
-14000,-1364,4112,1811,-1022,-2306,2024-01-24 11:07:14,0.0
-14532,-1272,2952,1567,-1534,-2628,2024-01-24 11:07:14,0.0
-14160,-1060,2816,1206,-1488,-2658,2024-01-24 11:07:14,0.0
-13400,-1148,2872,944,-864,-2417,2024-01-24 11:07:14,0.0
-12832,-1572,2676,601,-276,-2100,2024-01-24 11:07:14,0.0
-12936,-1716,3236,359,134,-1643,2024-01-24 11:07:14,0.0
-12952,-1248,3868,355,108,-1315,2024-01-24 11:07:14,0.0
-13044,-1216,4116,479,-67,-1046,2024-01-24 11:07:14,0.0
-13404,-1240,4212,450,-371,-716,2024-01-24 11:07:14,0.0
-13512,-1600,3464,227,-863,-411,2024-01-24 11:07:14,0.0
-13564,-2020,3064,-168,-855,-214,2024-01-24 11:07:14,0.0
-13616,-1964,2656,-720,-555,185,2024-01-24 11:07:14,0.0
-13652,-1512,2200,-1326,-451,911,2024-01-24 11:07:14,0.0
-13352,-1120,3044,-1156,156,1160,2024-01-24 11:07:14,0.0
-14316,-988,3760,-653,232,1422,2024-01-24 11:07:14,0.0
-14704,-1324,4832,-216,-718,1657,2024-01-24 11:07:14,0.0
-13900,-1428,4428,140,-2786,824,2024-01-24 11:07:14,0.0
-12784,-1736,4360,509,-4553,-128,2024-01-24 11:07:14,0.0
-12560,-2616,4928,1357,-3987,-734,2024-01-24 11:07:14,0.0
-13096,-2516,5688,2112,-3401,-1082,2024-01-24 11:07:14,0.0
-13560,-2068,5652,2506,-3171,-1147,2024-01-24 11:07:14,0.0
-13016,-1764,5052,2510,-2779,-1305,2024-01-24 11:07:14,0.0
-12620,-1712,4636,2369,-2001,-1411,2024-01-24 11:07:14,0.0
-13024,-1332,4896,2316,-768,-1331,2024-01-24 11:07:14,0.0
-13556,-944,5176,2585,492,-1215,2024-01-24 11:07:14,0.0
-13892,-648,5324,2800,801,-1096,2024-01-24 11:07:14,0.0
-14008,-496,5316,2954,837,-925,2024-01-24 11:07:14,0.0
-13988,-372,4864,2833,553,-747,2024-01-24 11:07:14,0.0
-13840,-456,4904,2532,395,-685,2024-01-24 11:07:14,0.0
-13732,-468,4988,2174,455,-494,2024-01-24 11:07:14,0.0
-13328,-432,4928,1766,483,-292,2024-01-24 11:07:14,0.0
-12940,-508,4992,1361,801,-148,2024-01-24 11:07:14,0.0
-12800,-652,5160,782,1600,-95,2024-01-24 11:07:14,0.0
-13160,-688,5412,466,1927,-7,2024-01-24 11:07:14,0.0
-13284,-788,5480,186,2099,-1,2024-01-24 11:07:14,0.0
-13232,-824,5572,55,2083,19,2024-01-24 11:07:14,0.0
-13584,-792,6096,-77,1792,2,2024-01-24 11:07:14,0.0
-13496,-1040,6088,-207,1338,-85,2024-01-24 11:07:14,0.0
-13352,-928,6100,-259,1019,-186,2024-01-24 11:07:14,0.0
-13420,-1044,5916,-404,684,-294,2024-01-24 11:07:14,0.0
-13348,-848,5864,-574,538,-319,2024-01-24 11:07:14,0.0
-13480,-640,5488,-752,665,-351,2024-01-24 11:07:14,0.0
-13184,-516,5440,-970,790,-303,2024-01-24 11:07:14,0.0
-13408,-596,5356,-1218,1208,-232,2024-01-24 11:07:15,0.0
-13888,-640,5124,-1401,1632,55,2024-01-24 11:07:15,0.0
-14012,-664,5408,-1626,1724,333,2024-01-24 11:07:15,0.0
-14312,-536,5660,-1637,1767,606,2024-01-24 11:07:15,0.0
-14756,300,4200,-1842,2396,1393,2024-01-24 11:07:15,0.0
-14804,1404,3076,-2772,3670,2379,2024-01-24 11:07:15,0.0
-14852,944,5336,-3410,3966,3307,2024-01-24 11:07:15,0.0
-15828,628,6960,-3673,1818,3774,2024-01-24 11:07:15,0.0
-14136,1300,6416,-4118,-1574,3190,2024-01-24 11:07:15,0.0
-11580,1044,5896,-4055,-3040,2297,2024-01-24 11:07:15,0.0
-10192,-8,6700,-3136,-2487,1361,2024-01-24 11:07:15,0.0
-10632,-1956,6836,-1960,-869,567,2024-01-24 11:07:15,0.0
-11876,-3692,6144,-1229,-544,-169,2024-01-24 11:07:15,0.0
-10692,-4116,5536,-1074,-1165,-1426,2024-01-24 11:07:15,0.0
-11568,176,4976,-952,1003,-2032,2024-01-24 11:07:15,0.0
-14860,-292,6280,-468,4415,-1159,2024-01-24 11:07:15,0.0
-16976,-52,5480,-431,3454,-421,2024-01-24 11:07:15,0.0
-16316,-840,5316,-666,65,-149,2024-01-24 11:07:15,0.0
-14764,-1484,5472,-615,-1099,-64,2024-01-24 11:07:15,0.0
-13860,-1136,5456,-591,-1362,-99,2024-01-24 11:07:15,0.0
-12620,-652,5092,-517,-1321,-341,2024-01-24 11:07:15,0.0
-11972,-848,4716,-283,-644,-565,2024-01-24 11:07:15,0.0
-12032,-836,4548,-163,339,-705,2024-01-24 11:07:15,0.0
-13016,-1056,4836,-63,982,-685,2024-01-24 11:07:15,0.0
-13560,-1416,5288,5,635,-646,2024-01-24 11:07:15,0.0
-13492,-1688,5508,123,313,-656,2024-01-24 11:07:15,0.0
-13324,-1556,5284,278,318,-626,2024-01-24 11:07:15,0.0
-13512,-1488,5412,388,647,-534,2024-01-24 11:07:15,0.0
-13836,-1380,5228,453,754,-551,2024-01-24 11:07:15,0.0
-13808,-1324,5192,569,363,-635,2024-01-24 11:07:15,0.0
-13704,-1192,5040,656,-128,-710,2024-01-24 11:07:15,0.0
-13444,-1188,4984,584,-398,-802,2024-01-24 11:07:15,0.0
-13308,-1156,4652,523,-591,-894,2024-01-24 11:07:15,
-13048,-1244,4156,431,-326,-938,2024-01-24 11:07:15,0.0
-13216,-1284,4236,321,148,-930,2024-01-24 11:07:15,0.0
-13472,-1084,4468,288,619,-883,2024-01-24 11:07:15,0.0
-13636,-612,4472,352,1145,-792,2024-01-24 11:07:15,0.0
-14516,-976,4000,-34,1840,-375,2024-01-24 11:07:15,0.0
-14928,-848,4596,-226,1437,-140,2024-01-24 11:07:15,0.0
-14512,-1024,5172,-241,329,-156,2024-01-24 11:07:15,0.0
-14160,-1064,4968,-183,-400,-186,2024-01-24 11:07:15,0.0
-13848,-1012,4732,-131,-555,-157,2024-01-24 11:07:15,0.0
-13544,-1140,4924,-58,-548,-194,2024-01-24 11:07:15,0.0
-13412,-1280,5512,81,-755,-231,2024-01-24 11:07:15,0.0
-13136,-1084,5332,224,-755,-285,2024-01-24 11:07:15,0.0
-13176,-1060,5144,287,-357,-290,2024-01-24 11:07:15,0.0
-13172,-972,4936,256,-12,-329,2024-01-24 11:07:15,0.0
-13324,-1036,5176,312,175,-356,2024-01-24 11:07:15,0.0
-13340,-888,4884,298,322,-448,2024-01-24 11:07:15,0.0
-13444,-812,4816,289,550,-438,2024-01-24 11:07:15,0.0
-13564,-612,5024,207,643,-357,2024-01-24 11:07:15,0.0
-13840,-632,4984,152,582,-231,2024-01-24 11:07:15,0.0
-13732,-792,5184,94,378,-135,2024-01-24 11:07:15,0.0
-13572,-848,5004,-27,324,-104,2024-01-24 11:07:15,0.0
-13468,-956,5056,-25,378,-158,2024-01-24 11:07:15,0.0
-13564,-1044,5132,100,318,-217,2024-01-24 11:07:15,0.0
-13460,-992,5140,213,166,-279,2024-01-24 11:07:15,0.0
-13540,-980,5084,257,122,-316,2024-01-24 11:07:15,0.0
-13632,-1012,5064,286,79,-329,2024-01-24 11:07:15,0.0
-13588,-980,5012,208,4,-341,2024-01-24 11:07:15,0.0
-13624,-920,5052,208,0,-282,2024-01-24 11:07:16,0.0
-13664,-912,4980,223,-23,-263,2024-01-24 11:07:16,0.0
-13684,-1004,5092,169,-56,-252,2024-01-24 11:07:16,0.0
-13548,-1044,4928,129,-122,-211,2024-01-24 11:07:16,0.0
-13576,-924,5116,98,-58,-162,2024-01-24 11:07:16,0.0
-13616,-812,4896,87,4,-151,2024-01-24 11:07:16,0.0
-13532,-936,4924,62,0,-149,2024-01-24 11:07:16,0.0
-13412,-776,4916,78,80,-155,2024-01-24 11:07:16,0.0
-13380,-868,4972,60,151,-170,2024-01-24 11:07:16,0.0
-13408,-1024,4956,29,185,-211,2024-01-24 11:07:16,0.0
-13560,-1008,4848,12,238,-230,2024-01-24 11:07:16,0.0
-13564,-968,5060,23,317,-237,2024-01-24 11:07:16,0.0
-13608,-816,5008,-33,276,-185,2024-01-24 11:07:16,0.0
-13620,-832,4800,-89,259,-185,2024-01-24 11:07:16,0.0
-13536,-772,4916,-165,221,-154,2024-01-24 11:07:16,0.0
-13504,-768,4804,-206,250,-168,2024-01-24 11:07:16,0.0
-13636,-864,5000,-212,271,-158,2024-01-24 11:07:16,0.0
-13572,-760,4992,-290,213,-118,2024-01-24 11:07:16,0.0
-13484,-736,4940,-358,199,-98,2024-01-24 11:07:16,0.0
-13580,-792,5124,-362,247,-96,2024-01-24 11:07:16,0.0
-13604,-820,4912,-362,221,-99,2024-01-24 11:07:16,0.0
-13424,-880,5028,-414,164,-75,2024-01-24 11:07:16,0.0
-13460,-820,5136,-380,171,-123,2024-01-24 11:07:16,0.0
-13524,-892,5072,-364,186,-115,2024-01-24 11:07:16,0.0
-13532,-856,4996,-378,248,-128,2024-01-24 11:07:16,0.0
-13372,-980,5052,-409,230,-139,2024-01-24 11:07:16,0.0
-13476,-944,5328,-350,234,-135,2024-01-24 11:07:16,0.0
-13616,-972,5236,-345,241,-138,2024-01-24 11:07:16,0.0
-13512,-852,5240,-356,252,-143,2024-01-24 11:07:16,0.0
-13596,-916,5020,-380,261,-101,2024-01-24 11:07:16,0.0
-13536,-904,5044,-411,245,-131,2024-01-24 11:07:16,0.0
-13600,-904,5024,-410,205,-119,2024-01-24 11:07:16,0.0
-13648,-904,5092,-421,112,-166,2024-01-24 11:07:16,0.0
-13584,-856,5028,-378,83,-116,2024-01-24 11:07:16,0.0
-13576,-916,5032,-428,131,-131,2024-01-24 11:07:16,0.0
-13672,-1000,5132,-467,190,-143,2024-01-24 11:07:16,0.0
-13568,-936,5328,-398,180,-148,2024-01-24 11:07:16,0.0
-13588,-1012,5020,-415,163,-167,2024-01-24 11:07:16,0.0
-13624,-1000,5236,-372,78,-187,2024-01-24 11:07:16,0.0
-13408,-996,5148,-365,-21,-216,2024-01-24 11:07:16,0.0
-13408,-984,5240,-316,37,-234,2024-01-24 11:07:16,0.0
-13460,-1004,5120,-301,112,-259,2024-01-24 11:07:16,0.0
-13432,-916,5136,-294,135,-253,2024-01-24 11:07:16,0.0
-13480,-1068,5224,-287,166,-274,2024-01-24 11:07:16,0.0
-13540,-996,5120,-292,131,-268,2024-01-24 11:07:16,0.0
-13484,-940,5292,-251,91,-279,2024-01-24 11:07:16,0.0
-13540,-988,5148,-279,83,-233,2024-01-24 11:07:16,0.0
-13500,-940,5128,-267,67,-265,2024-01-24 11:07:16,0.0
-13540,-936,5100,-229,114,-292,2024-01-24 11:07:16,0.0
-13408,-1012,5184,-264,226,-308,2024-01-24 11:07:16,0.0
-13524,-952,5148,-274,273,-295,2024-01-24 11:07:16,0.0
-13536,-1032,5252,-241,264,-305,2024-01-24 11:07:16,0.0
-13464,-932,5172,-240,273,-302,2024-01-24 11:07:16,0.0
-13480,-1036,5040,-183,260,-286,2024-01-24 11:07:16,0.0
-13464,-1052,5096,-205,306,-282,2024-01-24 11:07:16,0.0
-13504,-976,5092,-215,320,-259,2024-01-24 11:07:16,0.0
-13600,-996,5168,-211,312,-228,2024-01-24 11:07:16,0.0
-13644,-1016,5156,-183,251,-215,2024-01-24 11:07:16,0.0
-13496,-1040,5168,-198,193,-194,2024-01-24 11:07:16,0.0
-13472,-1080,5192,-196,181,-218,2024-01-24 11:07:16,0.0
-13468,-1188,5092,-240,243,-250,2024-01-24 11:07:17,0.0
-13436,-1208,5112,-176,237,-241,2024-01-24 11:07:17,0.0
-13496,-1028,5220,-150,277,-268,2024-01-24 11:07:17,0.0
-13612,-968,5144,-150,319,-223,2024-01-24 11:07:17,0.0
-13596,-1056,5176,-132,298,-196,2024-01-24 11:07:17,0.0
-13652,-1068,5312,-149,295,-165,2024-01-24 11:07:17,0.0
-13460,-952,5264,-108,245,-136,2024-01-24 11:07:17,0.0
-13468,-1084,5216,-143,256,-128,2024-01-24 11:07:17,0.0
-13552,-1120,5276,-147,276,-119,2024-01-24 11:07:17,0.0
-13460,-1068,5232,-152,255,-148,2024-01-24 11:07:17,0.0
-13484,-1068,5316,-97,307,-146,2024-01-24 11:07:17,0.0
-13592,-1028,5192,-105,370,-151,2024-01-24 11:07:17,0.0
-13588,-976,5124,-92,312,-175,2024-01-24 11:07:17,
