acceleration_x,acceleration_y,acceleration_z,gyroscope_x,gyroscope_y,gyroscope_z,timestamp,label
0.6799,-0.04,-0.7637,-1.5182,1.5335,-1.3351,2024-02-11 20:31:44.638,0.0
0.6787,-0.0454,-0.7712,-1.3046,1.4954,-1.3962,2024-02-11 20:31:44.655,0.0
0.679,-0.0391,-0.7598,-1.0529,1.3123,-1.4496,2024-02-11 20:31:44.674,0.0
0.6743,-0.0354,-0.7656,-1.2894,1.3962,-1.2131,2024-02-11 20:31:44.692,0.0
0.6711,-0.0393,-0.7603,-1.1368,1.3809,-1.2436,2024-02-11 20:31:44.704,0.0
0.6802,-0.0444,-0.7646,-1.2589,1.4801,-1.4801,2024-02-11 20:31:44.722,0.0
0.6785,-0.043,-0.7666,-1.2665,1.3428,-1.3504,2024-02-11 20:31:44.742,0.0
0.6816,-0.0388,-0.7698,-1.3046,1.4648,-1.4267,2024-02-11 20:31:44.760,0.0
0.6758,-0.0396,-0.7705,-1.2817,1.3809,-1.4496,2024-02-11 20:31:44.780,0.0
0.6821,-0.0376,-0.7654,-1.4191,1.3885,-1.297,2024-02-11 20:31:44.796,0.0
0.6824,-0.0403,-0.7729,-1.1215,1.4648,-1.3962,2024-02-11 20:31:44.815,0.0
0.6736,-0.0437,-0.7632,-1.4191,1.5488,-1.236,2024-02-11 20:31:44.838,0.0
0.6772,-0.0405,-0.7673,-1.3275,1.6022,-1.4267,2024-02-11 20:31:44.848,0.0
0.6741,-0.0432,-0.7593,-1.2741,1.6022,-1.2817,2024-02-11 20:31:44.871,0.0
0.677,-0.0415,-0.7651,-1.3046,1.2665,-1.3275,2024-02-11 20:31:44.885,0.0
0.6758,-0.0393,-0.761,-1.2512,1.3351,-1.4954,2024-02-11 20:31:44.910,0.0
0.679,-0.0398,-0.7593,-1.1978,1.3428,-1.3962,2024-02-11 20:31:44.921,0.0
0.6838,-0.0356,-0.7644,-1.4191,1.4725,-1.2207,2024-02-11 20:31:44.939,0.0
0.6809,-0.0444,-0.7673,-1.1749,1.6174,-1.3657,2024-02-11 20:31:44.956,0.0
0.6838,-0.0366,-0.7656,-1.442,1.3504,-1.1902,2024-02-11 20:31:44.976,0.0
0.679,-0.0391,-0.769,-1.1215,1.3885,-1.442,2024-02-11 20:31:44.991,0.0
0.6765,-0.0405,-0.7598,-1.3504,1.5335,-1.2894,2024-02-11 20:31:45.011,0.0
0.6758,-0.0352,-0.7612,-1.5945,1.6785,-1.3809,2024-02-11 20:31:45.041,0.0
0.6794,-0.042,-0.7642,-1.3428,1.4267,-1.2741,2024-02-11 20:31:45.045,0.0
0.6768,-0.0413,-0.7705,-1.1749,1.3351,-1.2817,2024-02-11 20:31:45.063,0.0
0.678,-0.0374,-0.7703,-1.2512,1.5869,-1.4801,2024-02-11 20:31:45.082,0.0
0.679,-0.0356,-0.7676,-1.297,1.4267,-1.2665,2024-02-11 20:31:45.099,0.0
0.677,-0.0378,-0.7732,-1.1063,1.4725,-1.5182,2024-02-11 20:31:45.119,0.0
0.6819,-0.0432,-0.7615,-1.236,1.5411,-1.4038,2024-02-11 20:31:45.140,0.0
0.678,-0.0403,-0.7698,-1.2207,1.3962,-1.2589,2024-02-11 20:31:45.153,0.0
0.6763,-0.0388,-0.7576,-1.236,1.4114,-1.4496,2024-02-11 20:31:45.175,0.0
0.6816,-0.0413,-0.7688,-1.1826,1.442,-1.2589,2024-02-11 20:31:45.191,0.0
0.6743,-0.0376,-0.76,-1.2436,1.3962,-1.4877,2024-02-11 20:31:45.237,0.0
0.675,-0.0422,-0.762,-1.2207,1.358,-1.2283,2024-02-11 20:31:45.238,0.0
0.6814,-0.0415,-0.7646,-1.1444,1.3809,-1.4801,2024-02-11 20:31:45.245,0.0
0.6794,-0.0442,-0.7686,-1.3046,1.2665,-1.2665,2024-02-11 20:31:45.262,0.0
0.6772,-0.041,-0.7769,-1.3275,1.5564,-1.2283,2024-02-11 20:31:45.282,0.0
0.677,-0.0386,-0.7629,-1.2207,1.3885,-1.3123,2024-02-11 20:31:45.297,0.0
0.6716,-0.0413,-0.7444,-1.0681,1.6098,-1.5106,2024-02-11 20:31:45.319,0.0
0.6833,-0.0381,-0.7737,-1.297,1.1978,-1.3809,2024-02-11 20:31:45.334,0.0
0.6748,-0.0366,-0.7568,-1.1749,1.5564,-1.358,2024-02-11 20:31:45.355,0.0
0.6721,-0.0408,-0.7625,-1.4954,1.3962,-1.3962,2024-02-11 20:31:45.370,0.0
0.6816,-0.0386,-0.7583,-1.3809,1.2741,-1.3885,2024-02-11 20:31:45.387,0.0
0.6753,-0.041,-0.7661,-1.4801,1.503,-1.4114,2024-02-11 20:31:45.436,0.0
0.678,-0.0347,-0.7688,-1.1673,1.6556,-1.2283,2024-02-11 20:31:45.437,0.0
0.6763,-0.0388,-0.7605,-1.2207,1.4877,-1.1978,2024-02-11 20:31:45.440,0.0
0.6753,-0.04,-0.7549,-1.3046,1.8158,-1.3351,2024-02-11 20:31:45.458,0.0
0.6829,-0.0374,-0.7681,-1.3123,1.3885,-1.503,2024-02-11 20:31:45.473,0.0
0.6746,-0.0398,-0.7634,-1.3428,1.5106,-1.3657,2024-02-11 20:31:45.504,0.0
0.6777,-0.0383,-0.7703,-1.3885,1.4572,-1.1978,2024-02-11 20:31:45.512,0.0
0.6763,-0.0439,-0.7605,-1.2589,1.503,-1.4572,2024-02-11 20:31:45.532,0.0
0.6812,-0.04,-0.7661,-1.4877,1.442,-1.5335,2024-02-11 20:31:45.557,0.0
0.6775,-0.0393,-0.7629,-1.2054,1.2283,-1.2207,2024-02-11 20:31:45.570,0.0
0.6741,-0.0444,-0.7654,-1.1749,1.2512,-1.2741,2024-02-11 20:31:45.585,0.0
0.6755,-0.0417,-0.7603,-1.0071,1.5564,-1.4496,2024-02-11 20:31:45.603,0.0
0.6743,-0.0435,-0.7583,-1.3657,1.7242,-1.1978,2024-02-11 20:31:45.622,0.0
0.6797,-0.0347,-0.7681,-1.2283,1.358,-1.2817,2024-02-11 20:31:45.647,0.0
0.6782,-0.0364,-0.7642,-1.2817,1.1139,-1.4038,2024-02-11 20:31:45.657,0.0
0.6792,-0.0371,-0.7651,-1.3428,1.3504,-1.297,2024-02-11 20:31:45.676,0.0
0.6831,-0.0361,-0.7666,-1.3885,1.4572,-1.5106,2024-02-11 20:31:45.697,0.0
0.6768,-0.0386,-0.7629,-1.297,1.4877,-1.4191,2024-02-11 20:31:45.715,0.0
0.6807,-0.0417,-0.7739,-1.0376,1.3046,-1.2512,2024-02-11 20:31:45.736,0.0
0.6812,-0.0408,-0.7578,-0.9537,1.3428,-1.1215,2024-02-11 20:31:45.754,0.0
0.6772,-0.0444,-0.7683,-1.3962,1.297,-1.442,2024-02-11 20:31:45.773,0.0
0.6768,-0.0435,-0.7715,-1.4496,1.3123,-1.4114,2024-02-11 20:31:45.792,0.0
0.6721,-0.0378,-0.7637,-1.3351,1.5106,-1.4648,2024-02-11 20:31:45.809,0.0
0.6743,-0.0452,-0.7644,-1.2131,1.5259,-1.2207,2024-02-11 20:31:45.844,0.0
0.6843,-0.042,-0.7722,-1.4648,1.2512,-1.4954,2024-02-11 20:31:45.851,0.0
0.678,-0.0444,-0.7668,-1.3275,1.4343,-1.3275,2024-02-11 20:31:45.888,0.0
0.6768,-0.0388,-0.7661,-1.2817,1.4038,-1.358,2024-02-11 20:31:45.911,0.0
0.678,-0.0425,-0.76,-1.2436,1.1597,-1.5259,2024-02-11 20:31:45.926,0.0
0.6821,-0.0422,-0.7705,-1.1978,1.2207,-1.3428,2024-02-11 20:31:45.948,0.0
0.6733,-0.0422,-0.7632,-1.4038,1.6174,-1.1749,2024-02-11 20:31:45.981,0.0
0.6755,-0.031,-0.7668,-1.2131,1.2207,-1.2512,2024-02-11 20:31:45.982,0.0
0.6807,-0.0435,-0.7629,-1.2283,1.3275,-1.5335,2024-02-11 20:31:45.989,0.0
0.6716,-0.0417,-0.7629,-1.3046,1.358,-1.358,2024-02-11 20:31:45.996,0.0
0.6843,-0.0415,-0.77,-1.358,1.4648,-1.2207,2024-02-11 20:31:46.010,0.0
0.675,-0.0396,-0.7725,-1.2436,1.503,-1.2589,2024-02-11 20:31:46.020,0.0
0.6741,-0.0391,-0.7625,-1.0605,1.5106,-1.4648,2024-02-11 20:31:46.045,0.0
0.6748,-0.0408,-0.7615,-1.2894,1.6708,-1.5488,2024-02-11 20:31:46.055,0.0
0.6821,-0.0415,-0.7603,3.0746,2.6169,-0.2975,2024-02-11 20:31:46.072,0.0
0.6826,-0.0391,-0.7661,1.6251,-0.3052,0.0305,2024-02-11 20:31:46.095,0.0
0.6729,-0.0425,-0.7534,1.091,1.2207,-0.4272,2024-02-11 20:31:46.115,0.0
0.6865,-0.0454,-0.7612,-0.1831,-0.8087,-0.2747,2024-02-11 20:31:46.127,0.0
0.6812,-0.0432,-0.7468,0.061,-4.2343,-0.5798,2024-02-11 20:31:46.147,0.0
0.6831,-0.0481,-0.7773,-1.3275,-6.8436,-0.8621,2024-02-11 20:31:46.163,0.0
0.6689,-0.0549,-0.8022,-3.1357,-4.0054,-2.1133,2024-02-11 20:31:46.180,0.0
0.6763,-0.0291,-0.7476,-0.679,-0.9155,-2.243,2024-02-11 20:31:46.214,0.0
0.6599,-0.0203,-0.7351,4.4479,2.2888,-0.145,2024-02-11 20:31:46.218,0.0
0.7483,-0.053,-0.7866,4.3945,-1.3199,0.1755,2024-02-11 20:31:46.259,0.0
0.8162,-0.0432,-0.7444,3.7155,2.9221,1.2817,2024-02-11 20:31:46.259,0.0
0.7505,-0.0906,-0.6992,4.715,0.5417,3.4637,2024-02-11 20:31:46.270,0.0
0.8093,-0.1326,-0.8003,10.4828,-2.7924,1.5945,2024-02-11 20:31:46.288,0.0
0.8245,-0.0437,-0.6912,15.6403,-13.7329,1.2054,2024-02-11 20:31:46.305,0.0
0.9382,-0.0403,-0.8867,18.0359,-38.0859,-4.8218,2024-02-11 20:31:46.322,0.0
0.9001,-0.0012,-0.9253,22.2778,-80.9555,-7.431,2024-02-11 20:31:46.355,0.0
0.8611,0.1035,-0.9937,30.0522,-145.6909,-11.467,2024-02-11 20:31:46.361,0.0
0.8562,0.1304,-1.1492,40.5502,-193.1229,-13.1607,2024-02-11 20:31:46.379,0.0
0.5178,0.2366,-1.1841,50.1709,-236.5341,-2.4567,2024-02-11 20:31:46.397,0.0
0.8066,-0.106,-1.2881,83.7326,-244.7662,8.5373,2024-02-11 20:31:46.414,0.0
0.5671,-0.1401,-1.51,88.7451,-239.09,-1.915,2024-02-11 20:31:46.431,0.0
0.0798,-0.134,-1.1814,101.1734,-243.6066,12.6648,2024-02-11 20:31:46.456,0.0
-0.0962,-0.1824,-1.1062,129.0817,-239.4714,30.6702,2024-02-11 20:31:46.466,0.0
-0.1873,-0.2407,-1.1641,142.1204,-219.6732,47.5616,2024-02-11 20:31:46.502,0.0
-0.0583,-0.3103,-1.5291,128.2196,-208.5495,50.4608,2024-02-11 20:31:46.504,0.0
0.0068,-0.4292,-1.2124,98.2056,-198.7,51.4908,2024-02-11 20:31:46.521,0.0
-0.2371,-0.5444,-1.0437,100.6088,-204.3152,52.9633,2024-02-11 20:31:46.538,0.0
-0.5176,-0.6938,-0.9478,113.3194,-225.5325,70.2591,2024-02-11 20:31:46.556,0.0
-0.4209,-0.7915,-0.9741,119.7586,-219.2841,76.9577,2024-02-11 20:31:46.585,0.0
-0.4355,-0.7107,-1.1938,108.4061,-183.7616,74.707,2024-02-11 20:31:46.594,0.0
-0.4751,-0.8022,-0.9678,71.3196,-148.7274,59.9289,2024-02-11 20:31:46.612,0.0
-0.4041,-0.8799,-1.0771,27.8244,-127.7313,26.0239,2024-02-11 20:31:46.630,0.0
-0.5564,-0.8423,-0.9199,22.3389,-110.0311,26.9012,2024-02-11 20:31:46.652,0.0
-0.4888,-0.6648,-0.8335,23.4222,-91.0873,17.5095,2024-02-11 20:31:46.666,0.0
-0.2925,-0.5076,-0.7654,18.8828,-53.7643,7.7515,2024-02-11 20:31:46.683,0.0
-0.2388,-0.3989,-0.6079,4.7302,-24.7879,-1.8616,2024-02-11 20:31:46.703,0.0
-0.3147,-0.4216,-0.5205,-2.0065,-8.9493,-9.1553,2024-02-11 20:31:46.720,0.0
-0.3083,-0.4399,-0.509,0.6561,0.6104,-13.5193,2024-02-11 20:31:46.740,0.0
-0.2864,-0.4507,-0.6001,-3.3722,12.97,-17.1738,2024-02-11 20:31:46.761,0.0
-0.302,-0.4453,-0.6079,-10.6354,24.0555,-21.2402,2024-02-11 20:31:46.774,0.0
-0.3337,-0.4668,-0.6167,-14.7705,30.8609,-24.2386,2024-02-11 20:31:46.792,0.0
-0.3564,-0.4756,-0.6401,-17.5018,37.3764,-26.3824,2024-02-11 20:31:46.847,0.0
-0.345,-0.4666,-0.6455,-20.874,45.2194,-28.2059,2024-02-11 20:31:46.863,0.0
-0.3354,-0.4529,-0.6418,-23.0942,48.439,-29.0451,2024-02-11 20:31:46.864,0.0
-0.3574,-0.4534,-0.6228,-22.3923,48.3704,-28.9078,2024-02-11 20:31:46.865,0.0
-0.3721,-0.4565,-0.6223,-20.4697,45.7458,-27.2598,2024-02-11 20:31:46.877,0.0
-0.3418,-0.4402,-0.5969,-19.4931,44.4565,-25.1846,2024-02-11 20:31:46.899,0.0
-0.3281,-0.4268,-0.5586,-18.9896,40.0925,-22.9645,2024-02-11 20:31:46.916,0.0
-0.248,-0.3904,-0.5056,-14.0076,37.5748,-22.5677,2024-02-11 20:31:46.939,0.0
-0.3821,-0.3755,-0.4609,-7.4234,24.1776,-17.3569,2024-02-11 20:31:46.951,0.0
-0.6685,-0.3074,-0.2585,5.3711,14.3661,1.9989,2024-02-11 20:31:47.320,0.0
-0.6714,-0.4136,-0.0828,35.3775,-16.7618,18.6996,2024-02-11 20:31:48.525,0.0
-0.28,-0.4512,-0.1841,52.9861,-25.1465,9.7122,2024-02-11 20:31:48.527,0.0
-0.406,-0.3879,-0.3513,46.5698,-10.6125,15.892,2024-02-11 20:31:48.527,0.0
-0.4038,-0.3428,-0.0815,48.4543,10.9253,17.9672,2024-02-11 20:31:48.528,0.0
-0.6091,-0.4338,-0.3311,50.9109,1.2741,31.8146,2024-02-11 20:31:48.529,0.0
-0.5352,-0.5117,-0.2771,38.7878,9.9945,33.0582,2024-02-11 20:31:48.530,0.0
-0.5564,-0.5464,-0.2358,41.8091,17.952,35.6293,2024-02-11 20:31:48.531,0.0
-0.5198,-0.5203,-0.3462,45.5399,13.0081,47.02,2024-02-11 20:31:48.531,0.0
-0.4146,-0.7402,-0.4692,-8.1177,-41.3666,-31.6391,2024-02-11 20:31:48.539,0.0
-0.6555,0.0254,-0.645,34.7672,-4.4556,-20.2789,2024-02-11 20:31:48.560,0.0
-0.6375,-0.0029,-0.6133,27.4048,-2.6703,-17.3569,2024-02-11 20:31:48.577,0.0
-0.6221,-0.0315,-0.5637,20.6909,-0.5341,-15.3351,2024-02-11 20:31:48.596,0.0
-0.6523,-0.0369,-0.5225,17.2729,-3.7231,-12.291,2024-02-11 20:31:48.617,0.0
-0.6494,-0.0466,-0.4832,13.6414,-2.1667,-9.7809,2024-02-11 20:31:48.634,0.0
-0.6562,-0.0518,-0.4907,8.1329,0.061,-7.1487,2024-02-11 20:31:48.670,0.0
-0.6641,-0.0552,-0.4922,1.1673,2.449,-4.6539,2024-02-11 20:31:48.671,0.0
-0.6416,-0.0342,-0.4419,-0.1526,5.4474,-3.7918,2024-02-11 20:31:48.687,0.0
-0.6475,-0.0015,-0.4614,-1.0376,9.2087,-3.8223,2024-02-11 20:31:48.708,0.0
-0.6687,0.0132,-0.4724,-0.7935,12.3444,-2.4033,2024-02-11 20:31:48.723,0.0
-0.6748,0.0303,-0.4998,-1.2054,13.4888,-0.1831,2024-02-11 20:31:48.741,0.0
-0.6904,0.0271,-0.4893,-1.503,16.8762,1.4572,2024-02-11 20:31:48.761,0.0
-0.6807,0.02,-0.4985,-1.9913,17.3569,2.594,2024-02-11 20:31:48.774,0.0
-0.6816,0.0144,-0.5254,-3.0899,17.8604,1.9455,2024-02-11 20:31:48.800,0.0
-0.6782,0.0151,-0.5417,-1.4954,19.6533,1.3199,2024-02-11 20:31:48.815,0.0
-0.6453,-0.0051,-0.5085,1.091,16.0294,0.3128,2024-02-11 20:31:48.835,0.0
-0.657,-0.0103,-0.5215,1.8997,12.2833,0.9537,2024-02-11 20:31:48.852,0.0
-0.6377,-0.0032,-0.5588,-0.1068,9.3689,1.1215,2024-02-11 20:31:48.870,0.0
-0.6165,0.0156,-0.5786,-3.1281,7.7972,0.1755,2024-02-11 20:31:48.887,0.0
-0.6118,0.0291,-0.5654,-4.2038,7.7744,-1.0223,2024-02-11 20:31:48.908,0.0
-0.6233,0.0359,-0.5452,-3.6087,7.4387,-1.3123,2024-02-11 20:31:48.923,0.0
-0.6252,0.0181,-0.5525,-3.9139,5.6686,-1.442,2024-02-11 20:31:48.941,0.0
-0.634,0.0076,-0.5322,-4.1428,4.6158,-2.2888,2024-02-11 20:31:48.965,0.0
-0.6521,0.012,-0.5364,-3.1433,4.3259,-2.5177,2024-02-11 20:31:48.979,0.0
-0.6531,0.002,-0.5376,-0.6027,4.4479,-2.5253,2024-02-11 20:31:48.997,0.0
-0.6633,-0.0037,-0.5376,2.6779,3.83,-2.0752,2024-02-11 20:31:49.017,0.0
-0.667,-0.0164,-0.5554,3.9673,2.3575,-1.6632,2024-02-11 20:31:49.034,0.0
-0.6475,-0.0173,-0.5564,3.9368,1.6174,-1.5793,2024-02-11 20:31:49.052,0.0
-0.6423,-0.0034,-0.5483,4.3411,-0.8545,-0.9766,2024-02-11 20:31:49.069,0.0
-0.637,0.002,-0.5515,6.1646,-1.3428,-0.5417,2024-02-11 20:31:49.092,0.0
-0.6382,0.0029,-0.5503,6.9199,-1.1292,0.2594,2024-02-11 20:31:49.107,0.0
-0.6252,-0.0085,-0.5557,5.6,-1.7319,0.7477,2024-02-11 20:31:49.133,0.0
-0.6221,-0.0068,-0.5439,3.8757,-3.4256,1.3351,2024-02-11 20:31:49.144,0.0
-0.6289,-0.0063,-0.5342,3.1891,-3.8528,2.0142,2024-02-11 20:31:49.161,0.0
-0.616,0.0029,-0.5256,2.3651,-4.1809,2.3727,2024-02-11 20:31:49.179,0.0
-0.6211,0.0034,-0.5071,3.2883,-3.4256,2.4185,2024-02-11 20:31:49.212,0.0
-0.6035,0.0139,-0.5225,4.2038,-2.1515,2.533,2024-02-11 20:31:49.218,0.0
-0.6089,0.0112,-0.5066,4.5166,-0.8926,2.1667,2024-02-11 20:31:49.232,0.0
-0.6084,0.0203,-0.5161,3.5782,0.6104,2.0599,2024-02-11 20:31:49.255,0.0
-0.6067,0.0266,-0.5122,2.9678,2.3346,1.9302,2024-02-11 20:31:49.268,0.0
-0.6091,0.0378,-0.5298,3.0975,3.9825,2.1362,2024-02-11 20:31:49.288,0.0
-0.6121,0.0369,-0.5278,3.6011,4.8828,2.3499,2024-02-11 20:31:49.306,0.0
-0.6147,0.0203,-0.5332,3.067,4.8141,2.4948,2024-02-11 20:31:49.330,0.0
-0.6167,0.0164,-0.531,1.6785,4.5013,2.4567,2024-02-11 20:31:49.343,0.0
-0.6191,0.0186,-0.5278,0.5493,4.837,2.121,2024-02-11 20:31:49.358,0.0
-0.6162,0.0173,-0.5337,1.2512,5.0125,1.6785,2024-02-11 20:31:49.379,0.0
-0.6196,0.0132,-0.5513,2.4567,5.8899,1.358,2024-02-11 20:31:49.395,0.0
-0.6123,-0.001,-0.5454,3.3188,5.3253,0.7935,2024-02-11 20:31:49.417,0.0
-0.6194,-0.0005,-0.5449,2.8839,4.5166,0.7324,2024-02-11 20:31:49.428,0.0
-0.6233,0.0012,-0.542,1.4725,3.7689,0.885,2024-02-11 20:31:49.475,0.0
-0.6201,0.0137,-0.5459,1.1292,3.3798,1.0757,2024-02-11 20:31:49.485,0.0
-0.623,0.0173,-0.5425,1.8311,3.3646,1.1139,2024-02-11 20:31:49.487,0.0
-0.6147,0.0186,-0.543,2.9221,3.7766,0.8545,2024-02-11 20:31:49.504,0.0
-0.6143,0.0193,-0.542,3.2806,2.8,0.5341,2024-02-11 20:31:49.527,0.0
-0.6099,0.0071,-0.5586,3.0365,3.2501,0.3357,2024-02-11 20:31:49.543,0.0
-0.6082,0.0137,-0.5349,2.5558,3.6087,0.7553,2024-02-11 20:31:49.556,0.0
-0.6104,0.0061,-0.5366,1.5259,2.9449,0.9766,2024-02-11 20:31:49.580,0.0
-0.6206,0.01,-0.5549,0.946,3.6087,1.2894,2024-02-11 20:31:49.590,0.0
-0.6047,0.012,-0.5315,0.946,4.2267,1.2817,2024-02-11 20:31:49.611,0.0
-0.6162,0.01,-0.5471,0.1526,4.2877,0.7095,2024-02-11 20:31:49.637,0.0
-0.5986,0.0159,-0.5483,-0.0534,4.8065,0.6027,2024-02-11 20:31:49.652,0.0
-0.6111,0.0183,-0.5415,-0.1831,4.8141,0.3433,2024-02-11 20:31:49.664,0.0
-0.6086,0.0071,-0.5398,-0.3891,5.1651,0.1602,2024-02-11 20:31:49.683,0.0
-0.605,0.0122,-0.5491,0.145,5.1498,-0.2365,2024-02-11 20:31:49.700,0.0
-0.6248,-0.002,-0.5725,-0.0687,5.2109,-0.2365,2024-02-11 20:31:49.726,0.0
-0.6138,-0.0032,-0.5667,-0.2518,5.3711,-0.7782,2024-02-11 20:31:49.740,0.0
-0.624,-0.0068,-0.5581,0.1831,4.509,-1.2436,2024-02-11 20:31:49.756,0.0
-0.6248,-0.0022,-0.5613,0.5646,3.7994,-1.3351,2024-02-11 20:31:49.775,0.0
-0.6182,-0.0027,-0.5503,2.0905,3.0899,-1.3733,2024-02-11 20:31:49.796,0.0
-0.6167,-0.0059,-0.5542,2.0752,2.5482,-1.5869,2024-02-11 20:31:49.811,0.0
-0.615,0.0024,-0.5601,1.091,2.5482,-1.6022,2024-02-11 20:31:49.828,0.0
-0.6182,0.0093,-0.563,0.5722,2.6398,-1.2817,2024-02-11 20:31:49.847,0.0
-0.6145,0.0088,-0.5415,0.1526,3.067,-1.2436,2024-02-11 20:31:49.865,0.0
-0.593,0.0032,-0.5242,0.267,2.9755,-1.4267,2024-02-11 20:31:49.881,0.0
-0.6067,-0.0054,-0.5457,-0.0687,3.1967,-1.8616,2024-02-11 20:31:49.917,0.0
-0.5967,-0.0073,-0.5544,-0.1907,4.1046,-1.8845,2024-02-11 20:31:49.918,0.0
-0.5955,-0.0078,-0.5701,0.0534,4.1962,-1.6556,2024-02-11 20:31:49.937,0.0
-0.6089,-0.0081,-0.5596,0.1678,4.8523,-1.3504,2024-02-11 20:31:49.953,0.0
-0.6001,-0.0066,-0.5457,-0.0305,4.2419,-0.9918,2024-02-11 20:31:49.970,0.0
-0.6025,-0.0151,-0.5581,0.4959,4.4937,-0.9918,2024-02-11 20:31:49.995,0.0
-0.5962,-0.0063,-0.5623,0.6638,4.6921,-1.091,2024-02-11 20:31:50.006,0.0
-0.614,-0.0083,-0.572,0.2136,4.9667,-1.2512,2024-02-11 20:31:50.024,0.0
-0.6082,-0.001,-0.5706,-0.2518,4.7531,-0.7172,2024-02-11 20:31:50.044,0.0
-0.6079,0.0056,-0.5608,-0.0763,3.952,-0.4044,2024-02-11 20:31:50.065,0.0
-0.6062,0.0051,-0.5818,-0.8011,3.5477,-0.061,2024-02-11 20:31:50.080,0.0
-0.6013,0.0051,-0.5713,-1.6022,3.1204,-0.2594,2024-02-11 20:31:50.100,0.0
-0.604,0.0063,-0.571,-1.6785,2.7924,-0.8698,2024-02-11 20:31:50.117,0.0
-0.6084,-0.0032,-0.571,-1.8463,1.9379,-1.1826,2024-02-11 20:31:50.141,0.0
-0.6152,-0.0066,-0.5632,-1.3504,1.4267,-1.1978,2024-02-11 20:31:50.151,0.0
-0.6184,-0.0049,-0.5693,0.3281,0.5875,-1.0071,2024-02-11 20:31:50.174,0.0
-0.6135,-0.0078,-0.5579,0.5188,0.8926,-1.0452,2024-02-11 20:31:50.193,0.0
-0.6067,-0.0056,-0.5547,0.061,0.5722,-1.03,2024-02-11 20:31:50.208,0.0
-0.5996,0.0081,-0.5637,-0.6943,0.4501,-0.8316,2024-02-11 20:31:50.225,0.0
-0.6016,0.0081,-0.5552,-0.885,0.7324,-0.9918,2024-02-11 20:31:50.244,0.0
-0.5969,0.0034,-0.5601,-0.5875,1.5106,-0.8316,2024-02-11 20:31:50.260,0.0
-0.5937,0.0046,-0.552,-0.4807,1.4725,-0.4349,2024-02-11 20:31:50.299,0.0
-0.5984,-0.0049,-0.5562,-0.9232,1.3351,-0.2975,2024-02-11 20:31:50.299,0.0
-0.5955,0.0083,-0.562,-2.0523,1.1673,-0.7095,2024-02-11 20:31:50.314,0.0
-0.6057,0.0193,-0.5554,-2.3117,2.0752,-0.7629,2024-02-11 20:31:50.332,0.0
-0.5977,0.0164,-0.5601,-2.6321,2.3651,-1.0757,2024-02-11 20:31:50.349,0.0
-0.6001,0.0088,-0.5544,-2.6321,2.5482,-1.358,2024-02-11 20:31:50.376,0.0
-0.5962,0.0088,-0.5588,-2.861,2.4643,-1.7319,2024-02-11 20:31:50.387,0.0
-0.5991,0.0039,-0.5522,-2.3575,2.4948,-2.0981,2024-02-11 20:31:50.407,0.0
-0.5974,-0.0059,-0.5596,-1.3885,2.6245,-2.3804,2024-02-11 20:31:50.425,0.0
-0.6045,-0.0034,-0.5747,-0.824,2.9373,-2.4185,2024-02-11 20:31:50.442,0.0
-0.6067,-0.0083,-0.5676,-0.7248,3.1662,-2.1591,2024-02-11 20:31:50.464,0.0
-0.5967,-0.0012,-0.5757,-1.6632,2.3804,-1.8997,2024-02-11 20:31:50.478,0.0
-0.5947,-0.0085,-0.5654,-2.5635,2.449,-1.8539,2024-02-11 20:31:50.497,0.0
-0.594,0.0024,-0.5779,-2.4261,1.9226,-1.9455,2024-02-11 20:31:50.515,0.0
-0.603,0.0002,-0.5667,-2.1591,1.9684,-1.5259,2024-02-11 20:31:50.534,0.0
-0.592,0.0002,-0.5688,-2.5482,1.8082,-1.4877,2024-02-11 20:31:50.566,0.0
-0.6033,-0.0098,-0.5654,-2.6093,1.2512,-1.6327,2024-02-11 20:31:50.569,0.0
-0.6016,-0.0078,-0.5752,-2.327,2.0828,-1.6708,2024-02-11 20:31:50.589,0.0
-0.5991,-0.0071,-0.5581,-2.1973,1.8692,-1.7395,2024-02-11 20:31:50.606,0.0
-0.5928,-0.0063,-0.5525,-1.9608,2.2583,-1.8539,2024-02-11 20:31:50.621,0.0
-0.5969,0.0049,-0.5522,-1.6556,2.0065,-2.0828,2024-02-11 20:31:50.659,0.0
-0.5955,-0.0073,-0.5642,-1.4191,2.2964,-2.0599,2024-02-11 20:31:50.660,0.0
-0.5896,-0.0017,-0.5759,-1.152,3.0136,-1.8234,2024-02-11 20:31:50.675,0.0
-0.5977,-0.0022,-0.5664,-1.3809,2.7237,-1.8463,2024-02-11 20:31:50.692,0.0
-0.5977,-0.0017,-0.5698,-1.0147,2.9755,-1.4877,2024-02-11 20:31:50.710,0.0
-0.604,0.0063,-0.5627,-0.8621,2.533,-1.5793,2024-02-11 20:31:50.729,0.0
-0.6035,-0.0044,-0.5703,-0.946,2.8687,-1.4267,2024-02-11 20:31:50.750,0.0
-0.5867,-0.0059,-0.5742,-0.7019,2.8229,-1.2512,2024-02-11 20:31:50.765,0.0
-0.604,-0.0034,-0.5703,-1.3351,2.9831,-0.8545,2024-02-11 20:31:50.788,0.0
-0.5862,0.0061,-0.5581,-1.9608,2.4796,-0.351,2024-02-11 20:31:50.804,0.0
-0.5916,0.0056,-0.5706,-2.6474,2.4643,-0.5035,2024-02-11 20:31:50.824,0.0
-0.5928,0.0068,-0.5647,-1.9531,3.3112,-0.8545,2024-02-11 20:31:50.841,0.0
-0.5872,0.0078,-0.5732,-1.7166,3.2654,-1.2283,2024-02-11 20:31:50.856,0.0
-0.5981,0.0049,-0.5664,-2.2125,3.1815,-1.1368,2024-02-11 20:31:50.876,0.0
-0.5906,-0.0002,-0.5745,-2.1439,2.6169,-1.4877,2024-02-11 20:31:50.892,0.0
-0.5996,0.0068,-0.5771,-1.8234,3.4943,-1.6785,2024-02-11 20:31:50.913,0.0
-0.5974,0.0085,-0.5693,-1.5106,3.4561,-1.8997,2024-02-11 20:31:50.931,0.0
-0.6021,0.0042,-0.5728,-1.1597,3.3112,-1.9073,2024-02-11 20:31:50.951,0.0
-0.5884,0.0056,-0.5664,-1.3657,2.6779,-1.9455,2024-02-11 20:31:50.966,0.0
-0.5969,-0.0007,-0.5815,-2.1591,2.8,-1.8768,2024-02-11 20:31:50.983,0.0
-0.5862,0.0078,-0.5798,-2.327,2.6855,-1.7014,2024-02-11 20:31:51.006,0.0
-0.5996,-0.0005,-0.5713,-2.1591,3.0365,-1.709,2024-02-11 20:31:51.022,0.0
-0.5937,0.0063,-0.5659,-1.8539,2.4796,-1.709,2024-02-11 20:31:51.040,0.0
-0.6028,-0.0088,-0.5742,-2.388,2.243,-1.7929,2024-02-11 20:31:51.061,0.0
-0.5962,-0.0115,-0.5781,-2.4872,2.0142,-1.7471,2024-02-11 20:31:51.075,0.0
-0.5999,-0.0024,-0.5735,-1.6861,1.2589,-1.7853,2024-02-11 20:31:51.094,0.0
-0.6001,-0.0054,-0.5767,-0.9995,1.091,-1.5945,2024-02-11 20:31:51.111,0.0
-0.6074,-0.0085,-0.5781,-1.152,0.8698,-1.4191,2024-02-11 20:31:51.127,0.0
-0.5977,-0.0032,-0.5654,-1.4114,0.351,-1.3351,2024-02-11 20:31:51.145,0.0
-0.605,-0.0076,-0.5818,-2.0599,-0.1831,-1.1292,2024-02-11 20:31:51.169,0.0
-0.6008,-0.0105,-0.5962,-2.0905,-0.618,-0.946,2024-02-11 20:31:51.181,0.0
-0.6079,0.0037,-0.5964,-1.4114,-1.0376,-1.1139,2024-02-11 20:31:51.200,0.0
-0.6101,-0.0034,-0.584,-0.5417,-1.976,-0.8316,2024-02-11 20:31:51.218,0.0
-0.6128,-0.0112,-0.5857,-1.77,-3.9444,-0.6943,2024-02-11 20:31:51.236,0.0
-0.6189,-0.0186,-0.6106,-3.2425,-6.3095,-1.0071,2024-02-11 20:31:51.284,0.0
-0.6267,-0.0049,-0.6152,-2.8915,-7.8506,-1.3199,2024-02-11 20:31:51.285,0.0
-0.6345,0.002,-0.6101,-1.2512,-8.667,-1.3046,2024-02-11 20:31:51.290,0.0
-0.6362,-0.0017,-0.5981,0.0687,-9.697,-0.8545,2024-02-11 20:31:51.306,0.0
-0.6453,-0.0129,-0.5964,-1.4343,-13.1073,-0.2365,2024-02-11 20:31:51.341,0.0
-0.6562,-0.0134,-0.5972,-3.0899,-14.9002,-0.0458,2024-02-11 20:31:51.353,0.0
-0.6462,-0.0142,-0.5767,-3.0975,-16.2506,0.4349,2024-02-11 20:31:51.368,0.0
-0.6377,-0.0071,-0.5486,-2.1591,-16.6626,0.5951,2024-02-11 20:31:51.381,0.0
-0.6328,-0.0139,-0.5288,-0.6714,-18.3182,0.9613,2024-02-11 20:31:51.397,0.0
-0.616,-0.0205,-0.5454,-1.7014,-18.3868,0.7401,2024-02-11 20:31:51.420,0.0
-0.606,-0.0181,-0.521,-1.7166,-17.952,0.8011,2024-02-11 20:31:51.431,0.0
-0.5989,-0.0188,-0.4734,-0.1297,-16.6931,1.0986,2024-02-11 20:31:51.454,0.0
-0.5928,-0.0203,-0.48,1.152,-16.6092,1.8005,2024-02-11 20:31:51.471,0.0
-0.5864,-0.0142,-0.4812,1.7776,-14.9155,1.8692,2024-02-11 20:31:51.488,0.0
-0.5767,-0.0046,-0.4739,1.9531,-12.3749,1.6632,2024-02-11 20:31:51.505,0.0
-0.5757,0.0181,-0.4646,1.915,-10.5896,1.5335,2024-02-11 20:31:51.527,0.0
-0.5879,0.0322,-0.4678,2.1439,-8.8272,0.6638,2024-02-11 20:31:51.540,0.0
-0.6001,0.0383,-0.499,0.824,-6.7139,-0.412,2024-02-11 20:31:51.565,0.0
-0.5984,0.0461,-0.4912,-0.351,-4.2191,-1.2894,2024-02-11 20:31:51.579,0.0
-0.614,0.0527,-0.4695,-0.7324,-1.1444,-1.3962,2024-02-11 20:31:51.600,0.0
-0.6316,0.0352,-0.4761,-1.7471,1.1444,-0.7095,2024-02-11 20:31:51.618,0.0
-0.6357,0.0359,-0.5098,-3.6774,3.9139,-0.4044,2024-02-11 20:31:51.638,0.0
-0.6423,0.0425,-0.5012,-5.2872,5.5466,-0.3967,2024-02-11 20:31:51.652,0.0
-0.6541,0.0449,-0.4797,-5.4092,6.012,-1.4496,2024-02-11 20:31:51.672,0.0
-0.6592,0.0474,-0.4724,-3.9749,5.2261,-2.2049,2024-02-11 20:31:51.708,0.0
-0.6467,0.0332,-0.4822,-3.067,5.6,-3.1204,2024-02-11 20:31:51.709,0.0
-0.6426,0.0251,-0.5037,-3.0518,5.4626,-4.2725,2024-02-11 20:31:51.725,0.0
-0.6477,0.0203,-0.5127,-3.479,5.8441,-4.8447,2024-02-11 20:31:51.761,0.0
-0.6409,0.0186,-0.4873,-2.4719,5.7831,-5.1727,2024-02-11 20:31:51.762,0.0
-0.6475,0.0056,-0.4771,-1.5945,5.1041,-5.0888,2024-02-11 20:31:51.775,0.0
-0.6428,-0.002,-0.5044,-1.976,5.5923,-5.0735,2024-02-11 20:31:51.807,0.0
-0.6526,-0.0012,-0.5381,-3.1738,5.8212,-5.3787,2024-02-11 20:31:51.809,0.0
-0.6511,0.0046,-0.5178,-3.1281,6.7596,-5.1727,2024-02-11 20:31:51.830,0.0
-0.6543,0.0122,-0.5068,-1.503,5.0583,-4.4174,2024-02-11 20:31:51.848,0.0
-0.6611,-0.0061,-0.5161,-1.7014,4.2877,-3.5858,2024-02-11 20:31:51.867,0.0
-0.6484,-0.0051,-0.5447,-3.2349,3.1128,-3.3646,2024-02-11 20:31:51.883,0.0
-0.6543,0.0032,-0.5398,-3.6545,3.9215,-3.3798,2024-02-11 20:31:51.901,0.0
-0.6516,-0.0007,-0.5415,-3.5324,3.3264,-2.6016,2024-02-11 20:31:51.924,0.0
-0.6387,-0.0017,-0.5247,-3.2883,2.1667,-2.4796,2024-02-11 20:31:51.940,0.0
-0.6431,-0.0068,-0.502,-2.5864,1.03,-1.9531,2024-02-11 20:31:51.960,0.0
-0.6323,-0.0007,-0.5144,-2.4643,1.3046,-1.8539,2024-02-11 20:31:51.982,0.0
-0.6245,-0.0005,-0.5203,-2.8992,2.1439,-1.6403,2024-02-11 20:31:51.995,0.0
-0.6323,0.0073,-0.5271,-2.7924,2.5864,-1.6556,2024-02-11 20:31:52.012,0.0
-0.6299,-0.0034,-0.5186,-2.0065,2.8076,-1.8616,2024-02-11 20:31:52.032,0.0
-0.6289,-0.0071,-0.5063,-1.4954,2.2888,-1.9608,2024-02-11 20:31:52.050,0.0
-0.6309,-0.0073,-0.5088,-1.236,2.1057,-1.8311,2024-02-11 20:31:52.068,0.0
-0.6257,-0.0049,-0.5022,0.0,2.2507,-2.0599,2024-02-11 20:31:52.091,0.0
-0.6345,-0.0056,-0.5129,0.7935,2.1439,-1.9379,2024-02-11 20:31:52.110,0.0
-0.6267,-0.0042,-0.5217,0.3662,1.5411,-2.0294,2024-02-11 20:31:52.122,0.0
-0.6318,-0.002,-0.5156,-0.0381,1.6174,-2.3041,2024-02-11 20:31:52.144,0.0
-0.6284,0.009,-0.5117,0.6409,1.1292,-2.2354,2024-02-11 20:31:52.165,0.0
-0.6299,0.0049,-0.5232,0.5188,1.03,-1.6098,2024-02-11 20:31:52.179,0.0
-0.6233,-0.0039,-0.512,-0.885,0.7629,-1.236,2024-02-11 20:31:52.194,0.0
-0.6294,-0.0029,-0.5076,-2.6016,0.7401,-0.2441,2024-02-11 20:31:52.218,0.0
-0.615,0.0002,-0.512,-3.5629,1.7624,0.3357,2024-02-11 20:31:52.236,0.0
-0.6077,0.0063,-0.5239,-3.2654,3.1509,0.3433,2024-02-11 20:31:52.254,0.0
-0.6245,0.0015,-0.5107,-2.5406,4.4098,0.5875,2024-02-11 20:31:52.273,0.0
-0.6296,0.0054,-0.4929,-3.6774,4.0588,1.1444,2024-02-11 20:31:52.291,0.0
-0.6353,0.0015,-0.5146,-5.4855,3.9749,1.3351,2024-02-11 20:31:52.309,0.0
-0.6238,0.0032,-0.5195,-5.3787,4.0436,0.885,2024-02-11 20:31:52.325,0.0
-0.6218,0.0098,-0.5208,-4.1733,4.921,0.3357,2024-02-11 20:31:52.345,0.0
-0.6306,0.0071,-0.512,-4.158,3.5553,0.3433,2024-02-11 20:31:52.363,0.0
-0.6333,0.0029,-0.491,-6.1188,2.4948,1.77,2024-02-11 20:31:52.378,0.0
-0.584,-0.0034,-0.4402,-6.2332,-0.3662,2.8229,2024-02-11 20:31:52.403,0.0
-0.5708,-0.0112,-0.4685,-7.4844,-4.097,2.6779,2024-02-11 20:31:52.414,0.0
-0.5669,0.0107,-0.4834,-10.5972,-6.1188,3.0746,2024-02-11 20:31:52.438,0.0
-0.5835,0.0222,-0.481,-14.6484,-7.6523,4.1656,2024-02-11 20:31:52.467,0.0
-0.5632,0.0234,-0.5583,-19.3787,-10.6888,4.6768,2024-02-11 20:31:52.470,0.0
-0.5708,0.031,-0.5798,-20.4315,-15.7242,1.6403,2024-02-11 20:31:52.492,0.0
-0.6584,0.0227,-0.6362,-18.1122,-22.6898,-0.1984,2024-02-11 20:31:52.505,0.0
-0.7295,0.0225,-0.6819,-13.0234,-22.4457,-1.1978,2024-02-11 20:31:52.525,0.0
-0.7798,0.0308,-0.6514,-7.1716,-16.9067,-3.5324,2024-02-11 20:31:52.542,0.0
-0.8594,0.0469,-0.551,2.9602,-8.7662,-6.4926,2024-02-11 20:31:52.560,0.0
-0.8914,0.0476,-0.4802,12.5122,-6.3324,-8.5373,2024-02-11 20:31:52.581,0.0
-0.8694,0.0464,-0.3982,19.1498,-9.819,-9.0714,2024-02-11 20:31:52.597,0.0
-0.8047,0.0349,-0.3655,19.165,-15.5945,-9.4376,2024-02-11 20:31:52.615,0.0
-0.7251,0.0276,-0.3801,15.6555,-21.7514,-8.9493,2024-02-11 20:31:52.639,0.0
-0.6499,0.0239,-0.4509,10.6201,-23.819,-8.5907,2024-02-11 20:31:52.652,0.0
-0.5854,0.0151,-0.4934,4.9286,-19.2337,-8.0338,2024-02-11 20:31:52.672,0.0
-0.5349,0.009,-0.459,3.0212,-13.4888,-7.8201,2024-02-11 20:31:52.692,0.0
-0.5444,0.0073,-0.408,2.5406,-7.9193,-6.4697,2024-02-11 20:31:52.717,0.0
-0.5547,-0.0051,-0.3855,3.6087,-2.4414,-4.1885,2024-02-11 20:31:52.727,0.0
-0.5618,-0.0012,-0.4058,2.4719,4.8828,-1.2283,2024-02-11 20:31:52.742,0.0
-0.573,0.009,-0.4614,-2.5711,9.7656,-0.1221,2024-02-11 20:31:52.761,0.0
-0.6172,0.0254,-0.4421,-4.3106,14.4196,0.6332,2024-02-11 20:31:52.781,0.0
-0.6628,0.033,-0.4268,-3.5629,16.3498,0.7401,2024-02-11 20:31:52.797,0.0
-0.6863,0.021,-0.4414,-1.4725,18.1503,0.0839,2024-02-11 20:31:52.817,0.0
-0.7136,0.0039,-0.4619,-0.0992,18.2877,-0.6256,2024-02-11 20:31:52.832,0.0
-0.717,-0.002,-0.4827,-0.351,16.8457,-1.03,2024-02-11 20:31:52.852,0.0
-0.7175,0.0061,-0.4817,0.6485,13.9008,-0.8774,2024-02-11 20:31:52.880,0.0
-0.7102,0.0024,-0.4778,2.3117,11.116,-0.5493,2024-02-11 20:31:52.889,0.0
-0.6929,-0.0005,-0.5093,5.4932,8.728,-1.3657,2024-02-11 20:31:52.907,0.0
-0.6775,-0.0071,-0.5217,7.6599,8.6899,-2.0065,2024-02-11 20:31:52.924,0.0
-0.6738,-0.0051,-0.5461,7.1335,7.7515,-2.1057,2024-02-11 20:31:52.941,0.0
-0.6521,-0.0042,-0.5239,5.5542,6.1417,-1.9836,2024-02-11 20:31:52.961,0.0
-0.6494,0.0027,-0.5239,4.9896,4.1962,-2.1286,2024-02-11 20:31:52.979,0.0
-0.647,-0.0066,-0.519,3.8986,3.4485,-2.182,2024-02-11 20:31:52.995,0.0
-0.6333,-0.0034,-0.5117,2.3499,2.9907,-2.0218,2024-02-11 20:31:53.018,0.0
-0.646,-0.0103,-0.4792,2.388,3.9902,-2.0676,2024-02-11 20:31:53.036,0.0
-0.6453,-0.0098,-0.4836,2.2812,4.5013,-0.9613,2024-02-11 20:31:53.054,0.0
-0.6343,-0.0156,-0.5042,1.152,5.3406,-0.5417,2024-02-11 20:31:53.071,0.0
-0.635,-0.011,-0.4985,0.0458,5.7755,-0.3891,2024-02-11 20:31:53.092,0.0
-0.644,-0.002,-0.4795,0.267,6.4621,-0.1144,2024-02-11 20:31:53.124,0.0
-0.6389,0.0,-0.4907,1.5335,6.9275,0.061,2024-02-11 20:31:53.124,0.0
-0.6355,-0.0054,-0.4922,1.5259,7.6981,-0.1755,2024-02-11 20:31:53.143,0.0
-0.6418,-0.0027,-0.4966,0.5646,8.1253,-0.1755,2024-02-11 20:31:53.162,0.0
-0.6448,-0.001,-0.4939,-0.3204,8.2932,-0.3204,2024-02-11 20:31:53.181,0.0
-0.6511,0.0005,-0.4922,-0.7629,8.873,-0.3738,2024-02-11 20:31:53.200,0.0
-0.6443,0.002,-0.4893,-0.2747,9.3155,-0.1221,2024-02-11 20:31:53.215,0.0
-0.6494,0.0002,-0.4956,-0.2594,9.4528,-0.5569,2024-02-11 20:31:53.238,0.0
-0.6399,0.0,-0.5105,-0.618,9.5062,-0.9308,2024-02-11 20:31:53.254,0.0
-0.6499,0.0017,-0.5083,-1.03,9.7656,-1.4801,2024-02-11 20:31:53.275,0.0
-0.646,0.0024,-0.5256,-0.8469,9.2621,-1.5945,2024-02-11 20:31:53.289,0.0
-0.6499,-0.0122,-0.5195,-0.0916,9.1248,-1.5945,2024-02-11 20:31:53.314,0.0
-0.6477,-0.0125,-0.5195,0.5646,8.5907,-1.4725,2024-02-11 20:31:53.328,0.0
-0.6533,-0.019,-0.522,1.0986,7.6523,-1.152,2024-02-11 20:31:53.343,0.0
-0.6567,-0.0293,-0.5303,0.9079,7.2479,-0.9232,2024-02-11 20:31:53.368,0.0
-0.6511,-0.0269,-0.5422,0.1373,6.6376,-0.9232,2024-02-11 20:31:53.380,0.0
-0.6511,-0.0217,-0.5068,1.0223,5.806,-0.7477,2024-02-11 20:31:53.396,0.0
-0.6514,-0.0146,-0.5222,1.2512,4.8676,-0.2213,2024-02-11 20:31:53.419,0.0
-0.6401,-0.0188,-0.5183,0.9766,4.9286,-0.3662,2024-02-11 20:31:53.436,0.0
-0.6382,-0.0051,-0.5183,0.8011,4.5776,-0.6714,2024-02-11 20:31:53.454,0.0
-0.6433,-0.0059,-0.5247,0.7095,4.7226,-0.5264,2024-02-11 20:31:53.472,0.0
-0.6416,-0.0029,-0.5308,-0.1984,4.4479,-0.0229,2024-02-11 20:31:53.492,0.0
-0.6494,-0.001,-0.5205,0.2899,4.8676,0.2899,2024-02-11 20:31:53.505,0.0
-0.6475,-0.0071,-0.5278,0.4196,5.0278,0.5112,2024-02-11 20:31:53.551,0.0
-0.634,-0.0127,-0.5195,0.3815,4.7684,0.5188,2024-02-11 20:31:53.552,0.0
-0.6357,-0.0073,-0.5107,0.0992,4.6158,0.5722,2024-02-11 20:31:53.558,0.0
-0.6345,0.0015,-0.5203,-0.1678,3.9825,0.7248,2024-02-11 20:31:53.577,0.0
-0.6309,-0.0017,-0.5288,-0.7095,3.8376,0.6485,2024-02-11 20:31:53.594,0.0
-0.6323,0.0032,-0.5317,-0.6485,3.8834,0.6409,2024-02-11 20:31:53.613,0.0
-0.6313,-0.0051,-0.5281,-0.618,4.1885,0.5264,2024-02-11 20:31:53.631,0.0
-0.6233,-0.0176,-0.5337,-0.946,3.6469,0.206,2024-02-11 20:31:53.651,0.0
-0.6299,-0.0146,-0.5356,-1.2512,3.4256,-0.1678,2024-02-11 20:31:53.666,0.0
-0.6201,-0.0044,-0.5276,-0.8163,3.0441,-0.2518,2024-02-11 20:31:53.686,0.0
-0.6233,0.0034,-0.5264,-0.0153,3.3188,-0.4196,2024-02-11 20:31:53.701,0.0
-0.6245,-0.0076,-0.5383,0.6256,3.5553,-0.6104,2024-02-11 20:31:53.721,0.0
-0.6211,-0.0061,-0.5505,0.7553,4.1656,-0.824,2024-02-11 20:31:53.741,0.0
-0.6213,0.0002,-0.5415,0.3281,4.158,-0.8087,2024-02-11 20:31:53.759,0.0
-0.6292,0.0042,-0.5408,-0.351,2.9984,-0.8698,2024-02-11 20:31:53.773,0.0
-0.6211,0.0037,-0.554,-1.6174,2.9602,-0.6943,2024-02-11 20:31:53.792,0.0
-0.6172,0.0059,-0.5461,-2.3346,2.8381,-1.0376,2024-02-11 20:31:53.812,0.0
-0.613,0.0034,-0.5388,-1.4877,2.6321,-1.236,2024-02-11 20:31:53.829,0.0
-0.6084,-0.0081,-0.5315,-0.7019,2.121,-1.1063,2024-02-11 20:31:53.847,0.0
-0.6021,-0.0139,-0.5317,-0.351,2.2659,-1.1139,2024-02-11 20:31:53.868,0.0
-0.6077,-0.0164,-0.5522,-0.6256,2.3117,-1.297,2024-02-11 20:31:53.888,0.0
-0.5989,-0.01,-0.5518,-1.236,3.3264,-1.2589,2024-02-11 20:31:53.904,0.0
-0.6047,-0.0024,-0.5393,-1.0223,4.4174,-1.2665,2024-02-11 20:31:53.929,0.0
-0.6086,-0.0046,-0.5261,-0.4425,4.9591,-1.091,2024-02-11 20:31:53.941,0.0
-0.6064,-0.0042,-0.5532,-0.824,5.0125,-0.9384,2024-02-11 20:31:53.961,0.0
-0.6035,-0.0061,-0.5652,-2.0065,5.4626,-0.7706,2024-02-11 20:31:53.974,0.0
-0.6045,-0.0093,-0.541,-2.243,5.2032,-0.0839,2024-02-11 20:31:53.998,0.0
-0.615,-0.0127,-0.5293,-1.2436,4.7989,-0.0916,2024-02-11 20:31:54.009,0.0
-0.6089,-0.0122,-0.5449,-0.0229,4.7073,0.2747,2024-02-11 20:31:54.033,0.0
-0.6033,-0.0144,-0.542,0.3357,5.4398,0.2365,2024-02-11 20:31:54.049,0.0
-0.6042,-0.0117,-0.5459,0.7324,5.8136,-0.0763,2024-02-11 20:31:54.065,0.0
-0.6079,-0.0088,-0.5571,-0.2136,5.6686,-0.2213,2024-02-11 20:31:54.086,0.0
-0.6138,0.0076,-0.5542,-0.7324,6.5002,-0.7477,2024-02-11 20:31:54.103,0.0
-0.6123,0.0127,-0.5481,-0.3586,6.8665,-0.6866,2024-02-11 20:31:54.121,0.0
-0.6091,0.0193,-0.5598,-0.5188,6.2485,-0.8011,2024-02-11 20:31:54.144,0.0
-0.6169,0.0112,-0.5574,-1.0147,6.1493,-1.3809,2024-02-11 20:31:54.167,0.0
-0.6072,0.0061,-0.5591,-1.7929,6.9885,-1.9226,2024-02-11 20:31:54.209,0.0
-0.6091,0.0051,-0.5444,-2.1439,7.4768,-2.182,2024-02-11 20:31:54.210,0.0
-0.6042,0.0051,-0.5251,-1.5182,7.2098,-2.3804,2024-02-11 20:31:54.211,0.0
-0.6157,-0.0024,-0.5449,-1.0681,7.2937,-2.5177,2024-02-11 20:31:54.228,0.0
-0.605,0.0002,-0.5466,-1.3657,8.0032,-2.8534,2024-02-11 20:31:54.283,0.0
-0.6082,-0.0005,-0.5422,-0.3586,8.6136,-3.334,2024-02-11 20:31:54.285,0.0
-0.613,0.001,-0.5559,-1.03,8.2474,-3.334,2024-02-11 20:31:54.286,0.0
-0.6125,-0.0049,-0.5845,-1.7776,7.4768,-2.8381,2024-02-11 20:31:54.297,0.0
-0.613,-0.009,-0.5762,-2.6398,7.019,-3.006,2024-02-11 20:31:54.352,0.0
-0.613,-0.0081,-0.5652,-2.2964,5.4626,-2.7237,2024-02-11 20:31:54.367,0.0
-0.6204,-0.01,-0.5999,-3.1967,3.7079,-2.4796,2024-02-11 20:31:54.373,0.0
-0.6165,-0.0137,-0.5908,-3.3417,2.8229,-2.4338,2024-02-11 20:31:54.374,0.0
-0.6245,-0.0146,-0.5762,-2.8839,2.5024,-2.5101,2024-02-11 20:31:54.388,0.0
-0.6096,-0.0151,-0.5557,-2.3041,0.9689,-2.4719,2024-02-11 20:31:54.451,0.0
-0.6052,-0.0132,-0.5559,-1.6785,-0.6866,-2.6169,2024-02-11 20:31:54.455,0.0
-0.6091,-0.0083,-0.5789,-1.5869,-0.9308,-2.6169,2024-02-11 20:31:54.456,0.0
-0.6089,0.0,-0.5815,-1.1597,-0.6409,-2.8305,2024-02-11 20:31:54.459,0.0
-0.6089,0.001,-0.5742,-0.5112,-0.1755,-3.2043,2024-02-11 20:31:54.479,0.0
-0.614,-0.0073,-0.5686,-3.1586,-1.358,-4.0512,2024-02-11 20:31:54.498,0.0
-0.6348,-0.0027,-0.552,-5.9814,-1.1597,-4.6997,2024-02-11 20:31:54.515,0.0
-0.6448,0.0164,-0.5134,-7.0419,1.1826,-4.5853,2024-02-11 20:31:54.536,1.0
-0.636,0.0298,-0.4927,-7.8354,3.6774,-4.8447,2024-02-11 20:31:54.550,1.0
-0.6653,0.0129,-0.5234,-11.2534,5.3406,-5.1651,2024-02-11 20:31:54.571,1.0
-0.6548,0.0007,-0.5076,-16.3879,11.9095,-5.7983,2024-02-11 20:31:54.591,1.0
-0.6611,0.0076,-0.4666,-18.898,18.0664,-5.7449,2024-02-11 20:31:54.607,1.0
-0.6707,-0.0051,-0.4458,-19.455,23.1171,-6.2027,2024-02-11 20:31:54.631,1.0
-0.6501,0.0051,-0.4475,-17.0975,29.0527,-6.1722,2024-02-11 20:31:54.641,1.0
-0.6416,0.0203,-0.4773,-13.7558,36.1404,-5.4703,2024-02-11 20:31:54.672,1.0
-0.6111,0.0181,-0.4724,-12.619,43.5867,-5.0125,2024-02-11 20:31:54.679,1.0
-0.6174,0.0056,-0.4785,-13.7787,48.1949,-5.1651,2024-02-11 20:31:54.693,1.0
-0.6052,-0.0198,-0.4546,-13.2294,55.2292,-5.5847,2024-02-11 20:31:54.713,1.0
-0.5977,-0.0222,-0.4792,-10.2081,62.7823,-6.4926,2024-02-11 20:31:54.739,1.0
-0.5713,-0.0496,-0.4687,-9.0408,73.4482,-7.7133,2024-02-11 20:31:54.752,1.0
-0.5271,-0.0354,-0.4109,-8.4991,81.4133,-9.0027,2024-02-11 20:31:54.771,1.0
-0.4814,-0.0266,-0.3413,-7.2556,88.9206,-10.9863,2024-02-11 20:31:54.785,1.0
-0.4631,-0.0386,-0.3169,-4.7302,93.3228,-11.9781,2024-02-11 20:31:54.805,1.0
-0.3911,-0.0544,-0.2617,2.3499,102.1729,-11.1313,2024-02-11 20:31:54.823,1.0
-0.2659,-0.05,-0.2029,10.2005,112.1063,-11.4441,2024-02-11 20:31:54.842,1.0
-0.2085,-0.021,-0.1226,18.3563,123.9395,-9.1171,2024-02-11 20:31:54.861,1.0
-0.1101,-0.0059,-0.0144,27.71,131.9962,-4.8065,2024-02-11 20:31:54.876,1.0
-0.0618,-0.0413,0.0503,38.5132,142.807,1.3123,2024-02-11 20:31:54.893,1.0
0.071,-0.0894,-0.0967,46.6003,140.4648,7.5607,2024-02-11 20:31:54.911,1.0
0.1816,-0.1003,-0.0767,47.081,141.5482,8.7891,2024-02-11 20:31:54.929,1.0
0.2063,-0.0581,0.0195,53.9322,146.9345,8.6594,2024-02-11 20:31:54.953,1.0
0.123,-0.0447,0.0466,54.2145,157.0816,8.11,2024-02-11 20:31:54.966,1.0
0.188,-0.0232,0.0259,48.1415,144.7601,2.8687,2024-02-11 20:31:54.985,1.0
0.126,-0.0203,0.0691,42.5568,134.6054,0.4044,2024-02-11 20:31:55.003,1.0
0.1863,-0.0303,0.092,40.7715,116.127,1.8311,2024-02-11 20:31:55.020,1.0
0.1606,-0.0256,0.0767,38.3301,106.0181,5.4779,2024-02-11 20:31:55.039,1.0
0.1709,-0.0403,0.0591,32.7606,103.6453,5.8289,2024-02-11 20:31:55.059,1.0
0.2361,-0.0413,0.0789,29.0985,101.4557,6.1264,2024-02-11 20:31:55.076,1.0
0.2419,-0.0466,0.0779,29.5181,90.7516,2.7237,2024-02-11 20:31:55.093,1.0
0.2129,-0.0527,0.0854,31.3339,83.5724,0.3052,2024-02-11 20:31:55.111,1.0
0.2278,-0.0356,0.052,32.3944,82.5043,-2.7847,2024-02-11 20:31:55.127,1.0
0.2178,-0.0432,0.0403,35.3699,93.7881,-6.1722,2024-02-11 20:31:55.144,1.0
0.2334,-0.0464,0.0413,36.7966,101.9135,-10.0327,2024-02-11 20:31:55.162,1.0
0.2129,-0.051,0.0032,37.5519,102.2263,-11.6959,2024-02-11 20:31:55.181,1.0
0.2056,-0.0417,0.0071,35.5911,96.8399,-13.3514,2024-02-11 20:31:55.204,1.0
0.1987,-0.0503,-0.0002,33.6456,94.4138,-13.9771,2024-02-11 20:31:55.222,1.0
0.2124,-0.0601,-0.0137,31.6849,91.1179,-14.9918,2024-02-11 20:31:55.244,1.0
0.2144,-0.0549,-0.0325,30.6931,86.9751,-15.419,2024-02-11 20:31:55.260,1.0
-2.6597,2.0757,-8.0,-250.0,-250.0,-30.7846,2024-02-11 20:31:55.278,1.0
-8.0,-1.0999,7.9998,240.2496,68.9011,249.9924,2024-02-11 20:31:55.295,1.0
2.1494,0.1687,-6.7666,56.0379,198.082,-132.309,2024-02-11 20:31:55.310,1.0
-0.1572,-0.2327,-0.3376,-53.6575,249.9924,-210.5103,2024-02-11 20:31:55.329,1.0
-0.7419,-0.0061,0.4097,32.2952,151.4435,-77.9572,2024-02-11 20:31:55.354,1.0
0.4768,-0.218,-0.4829,53.0624,44.6625,0.1221,2024-02-11 20:31:55.379,1.0
1.2151,-0.1086,-0.9487,-7.2403,-18.2648,-5.867,2024-02-11 20:31:55.387,1.0
0.6213,-0.1675,-0.833,-41.5802,-61.4395,-5.5542,2024-02-11 20:31:55.401,1.0
0.3196,-0.1636,-0.6692,-55.8548,-145.546,-9.2926,2024-02-11 20:31:55.420,1.0
0.3132,-0.0337,-0.9104,-39.9399,-155.1132,2.7542,2024-02-11 20:31:55.436,1.0
0.2649,0.0691,-0.99,-7.0343,-88.7985,0.0534,2024-02-11 20:31:55.483,1.0
0.241,-0.0632,-0.9832,4.0054,-24.0555,0.5951,2024-02-11 20:31:55.484,1.0
0.3643,-0.1091,-1.0789,-6.1951,9.8114,-2.0142,2024-02-11 20:31:55.492,1.0
0.3347,-0.0295,-0.8027,-3.2806,7.8812,-2.1744,2024-02-11 20:31:55.507,1.0
0.3921,-0.0181,-0.7639,5.8136,-6.5384,-0.3891,2024-02-11 20:31:55.528,1.0
0.4307,-0.0251,-0.7742,7.5378,-44.2505,-0.7858,2024-02-11 20:31:55.540,1.0
0.2837,-0.0559,-1.0398,-11.2228,-58.2809,10.7727,2024-02-11 20:31:55.562,1.0
0.2236,-0.0479,-0.9241,17.334,-33.7067,7.7667,2024-02-11 20:31:55.579,1.0
0.2788,-0.0942,-1.0376,3.7613,-17.3492,5.8289,2024-02-11 20:31:55.603,1.0
0.2097,-0.0786,-0.8528,-0.5951,-13.3591,1.2283,2024-02-11 20:31:55.613,1.0
0.2385,-0.0784,-0.9421,-2.4033,-5.3329,-1.6937,2024-02-11 20:31:55.635,0.0
0.2673,-0.0544,-0.8989,-0.4654,1.3962,-4.3106,2024-02-11 20:31:55.649,0.0
0.2688,-0.074,-0.9612,-0.946,5.867,-4.7073,2024-02-11 20:31:55.670,0.0
0.2495,-0.0906,-0.9131,-3.3264,6.9427,-1.6403,2024-02-11 20:31:55.683,0.0
0.2896,-0.0229,-0.8557,-3.0746,4.1275,-1.442,2024-02-11 20:31:55.700,0.0
0.2917,-0.0283,-0.9885,-6.34,4.8523,-2.4261,2024-02-11 20:31:55.724,0.0
0.2971,-0.0481,-0.8989,-6.4697,-0.9537,-1.915,2024-02-11 20:31:55.739,0.0
0.2651,-0.0562,-0.8867,-1.152,2.8305,-1.6556,2024-02-11 20:31:55.757,0.0
0.2588,-0.0581,-0.8926,-1.3657,4.0665,-1.3809,2024-02-11 20:31:55.777,0.0
0.2847,-0.0598,-0.9065,-0.2594,0.8469,-0.9537,2024-02-11 20:31:55.794,0.0
0.2725,-0.0647,-0.917,-0.7095,0.1755,-1.091,2024-02-11 20:31:55.820,0.0
0.2725,-0.054,-0.908,-0.1984,2.0981,-1.4343,2024-02-11 20:31:55.834,0.0
0.2893,-0.0576,-0.8994,-0.0305,1.3046,-1.4954,2024-02-11 20:31:55.854,0.0
0.2866,-0.0718,-0.9319,-1.442,-0.6714,-1.2054,2024-02-11 20:31:55.870,0.0
0.2634,-0.0649,-0.906,-2.4338,0.3967,-1.4191,2024-02-11 20:31:55.886,0.0
0.271,-0.0586,-0.9141,-1.4648,1.6556,-1.3657,2024-02-11 20:31:55.905,0.0
0.2776,-0.0596,-0.9121,-2.182,1.6632,-1.6174,2024-02-11 20:31:55.926,0.0
0.2759,-0.0605,-0.9126,-2.0981,1.4191,-1.5335,2024-02-11 20:31:55.939,0.0
0.2766,-0.0547,-0.9021,-1.6937,1.3199,-1.4343,2024-02-11 20:31:55.960,0.0
0.2756,-0.0583,-0.9111,-1.2665,1.1139,-1.2589,2024-02-11 20:31:55.981,0.0
0.2751,-0.0562,-0.9119,-1.3428,1.0529,-1.1597,2024-02-11 20:31:55.998,0.0
0.2793,-0.0618,-0.9182,-1.2665,1.2131,-1.2817,2024-02-11 20:31:56.013,0.0
0.2727,-0.0615,-0.9111,-1.2054,1.2589,-1.3657,2024-02-11 20:31:56.032,0.0
0.2766,-0.0574,-0.9082,-1.6785,1.5411,-1.2512,2024-02-11 20:31:56.049,0.0
0.272,-0.0608,-0.9155,-1.503,1.5411,-1.4954,2024-02-11 20:31:56.068,0.0
0.2764,-0.0549,-0.9136,-1.5106,1.358,-1.2741,2024-02-11 20:31:56.086,0.0
0.2734,-0.0537,-0.9087,-1.6785,1.2665,-1.3504,2024-02-11 20:31:56.107,0.0
0.2732,-0.0557,-0.9097,-1.3275,1.4648,-1.2665,2024-02-11 20:31:56.128,0.0
0.2793,-0.0588,-0.9119,-1.358,1.1292,-1.297,2024-02-11 20:31:56.140,0.0
0.2803,-0.0583,-0.9131,-1.3733,1.4801,-1.3885,2024-02-11 20:31:56.165,0.0
0.2732,-0.0576,-0.9131,-1.4191,1.2207,-1.2207,2024-02-11 20:31:56.177,0.0
0.2664,-0.0591,-0.9041,-1.2512,1.564,-1.4496,2024-02-11 20:31:56.199,0.0
0.2771,-0.0579,-0.9138,-1.091,1.6479,-1.1978,2024-02-11 20:31:56.215,0.0
0.2729,-0.0571,-0.9094,-1.3504,1.5259,-1.4343,2024-02-11 20:31:56.235,0.0
0.2827,-0.0576,-0.9163,-1.6632,1.091,-1.236,2024-02-11 20:31:56.252,0.0
0.2769,-0.0581,-0.9141,-1.5793,1.358,-1.3504,2024-02-11 20:31:56.271,0.0
0.2776,-0.061,-0.908,-1.3351,1.4877,-1.4801,2024-02-11 20:31:56.289,0.0
0.2729,-0.0571,-0.9148,-1.4343,1.3046,-1.297,2024-02-11 20:31:56.304,0.0
0.2742,-0.0557,-0.9058,-1.358,1.4267,-1.3657,2024-02-11 20:31:56.322,0.0
0.2778,-0.0586,-0.9065,-1.6556,1.3962,-1.3733,2024-02-11 20:31:56.342,0.0
0.2729,-0.0605,-0.906,-1.4114,1.3504,-1.2054,2024-02-11 20:31:56.360,0.0
0.2734,-0.0591,-0.9104,-1.2741,1.4572,-1.1826,2024-02-11 20:31:56.378,0.0
0.2778,-0.0564,-0.9063,-1.2741,1.7624,-1.4343,2024-02-11 20:31:56.397,0.0
0.2769,-0.0593,-0.9106,-1.358,1.6937,-1.4648,2024-02-11 20:31:56.413,0.0
0.2764,-0.0525,-0.9097,-1.6098,1.4343,-1.2817,2024-02-11 20:31:56.434,0.0
0.2715,-0.0559,-0.9045,-1.5564,1.4343,-1.3275,2024-02-11 20:31:56.450,0.0
0.2773,-0.0598,-0.9126,-1.3046,1.442,-1.2589,2024-02-11 20:31:56.496,0.0
0.2734,-0.0579,-0.9041,-1.3275,1.5793,-1.4877,2024-02-11 20:31:56.499,0.0
0.282,-0.0605,-0.9067,-1.3275,1.4572,-1.358,2024-02-11 20:31:56.521,0.0
0.28,-0.0601,-0.9104,-1.5335,1.6327,-1.4114,2024-02-11 20:31:56.538,0.0
0.2771,-0.0535,-0.9141,-1.2512,1.3657,-1.3428,2024-02-11 20:31:56.539,0.0
0.2764,-0.0608,-0.9165,-1.4496,1.3275,-1.4725,2024-02-11 20:31:56.561,0.0
0.2769,-0.0605,-0.9158,-1.2741,1.5106,-1.4648,2024-02-11 20:31:56.575,0.0
0.2783,-0.0583,-0.9114,-1.3885,1.4191,-1.5259,2024-02-11 20:31:56.598,0.0
0.2747,-0.0586,-0.9094,-1.2436,1.4114,-1.358,2024-02-11 20:31:56.614,0.0
0.2722,-0.0547,-0.9146,-1.2512,1.5335,-1.1597,2024-02-11 20:31:56.633,0.0
0.2727,-0.0566,-0.9099,-1.3809,1.5335,-1.2283,2024-02-11 20:31:56.656,0.0
0.2715,-0.0566,-0.9072,-1.3733,1.1063,-1.4114,2024-02-11 20:31:56.667,0.0
0.2751,-0.0613,-0.9065,-1.1368,1.6479,-1.4191,2024-02-11 20:31:56.694,0.0
0.2756,-0.054,-0.9148,-1.2894,1.4725,-1.3885,2024-02-11 20:31:56.701,0.0
0.2739,-0.0562,-0.906,-1.0681,1.5411,-1.3962,2024-02-11 20:31:56.724,0.0
0.2778,-0.0598,-0.9126,-1.1215,1.1444,-1.1673,2024-02-11 20:31:56.741,0.0
0.2747,-0.0586,-0.8972,-1.3275,1.4191,-1.2054,2024-02-11 20:31:56.761,0.0
0.2729,-0.0576,-0.9146,-1.5793,1.2436,-1.3733,2024-02-11 20:31:56.779,0.0
0.2766,-0.0552,-0.9128,-1.5259,1.2512,-1.3428,2024-02-11 20:31:56.803,0.0
0.2722,-0.0588,-0.9058,-1.4038,1.4648,-1.2054,2024-02-11 20:31:56.823,0.0
0.2783,-0.0593,-0.9138,-1.3733,1.2589,-1.4954,2024-02-11 20:31:56.839,0.0
0.2759,-0.0591,-0.9158,-1.3962,1.1749,-1.3046,2024-02-11 20:31:56.852,0.0
0.2764,-0.0576,-0.9124,-1.3657,1.152,-1.3809,2024-02-11 20:31:56.870,0.0
0.2751,-0.0557,-0.9087,-1.2207,1.3809,-1.2207,2024-02-11 20:31:56.893,0.0
0.2754,-0.0588,-0.8999,-1.4191,1.442,-1.2817,2024-02-11 20:31:56.908,0.0
0.282,-0.0569,-0.9048,-1.2512,1.4954,-1.2436,2024-02-11 20:31:56.927,0.0
0.272,-0.0586,-0.9075,-1.3428,1.4191,-1.3733,2024-02-11 20:31:56.941,0.0
0.2747,-0.054,-0.9153,-1.3504,1.4267,-1.0834,2024-02-11 20:31:56.962,0.0
0.2729,-0.0574,-0.9023,-1.3733,1.4725,-1.358,2024-02-11 20:31:56.977,0.0
0.2734,-0.0544,-0.9087,-1.1368,1.503,-1.2817,2024-02-11 20:31:56.995,0.0
0.2788,-0.0562,-0.9067,-1.3351,1.3885,-1.2512,2024-02-11 20:31:57.019,0.0
0.2786,-0.053,-0.9075,-1.5717,1.5488,-1.3351,2024-02-11 20:31:57.031,0.0
0.2737,-0.063,-0.8984,-1.3046,1.2894,-1.2894,2024-02-11 20:31:57.051,0.0
0.2754,-0.0532,-0.9023,-1.1215,1.2817,-1.3962,2024-02-11 20:31:57.069,0.0
0.2795,-0.0552,-0.915,-1.3199,1.1368,-1.5564,2024-02-11 20:31:57.086,0.0
0.2739,-0.0583,-0.8999,-1.1978,1.3428,-1.2817,2024-02-11 20:31:57.109,0.0
0.2688,-0.0525,-0.9199,-1.2589,1.6251,-1.4038,2024-02-11 20:31:57.122,0.0
0.2778,-0.054,-0.9128,-1.3657,1.3428,-1.4496,2024-02-11 20:31:57.140,0.0
0.2698,-0.0603,-0.9104,-1.2894,1.3351,-1.3809,2024-02-11 20:31:57.160,0.0
0.272,-0.0642,-0.9053,-1.2054,1.4496,-1.2741,2024-02-11 20:31:57.182,0.0
0.2708,-0.0566,-0.9143,-1.3428,1.3351,-1.4038,2024-02-11 20:31:57.197,0.0
0.2781,-0.0579,-0.9143,-1.2741,1.442,-1.3275,2024-02-11 20:31:57.215,0.0
0.2776,-0.0554,-0.897,-1.297,1.4572,-1.3275,2024-02-11 20:31:57.235,0.0
0.2747,-0.0518,-0.9119,-1.0757,1.3351,-1.3351,2024-02-11 20:31:57.249,0.0
0.2734,-0.0503,-0.9041,-1.358,1.5793,-1.3351,2024-02-11 20:31:57.270,0.0
0.2729,-0.0579,-0.9116,-1.1826,1.4114,-1.4648,2024-02-11 20:31:57.288,0.0
0.2793,-0.05,-0.9111,-1.3809,1.4114,-1.4343,2024-02-11 20:31:57.307,0.0
0.2737,-0.0557,-0.9131,-1.1978,1.2894,-1.2283,2024-02-11 20:31:57.321,0.0
0.2729,-0.0564,-0.9023,-1.4038,1.5259,-1.3275,2024-02-11 20:31:57.341,0.0
0.2754,-0.0518,-0.9016,-1.3046,1.4572,-1.3046,2024-02-11 20:31:57.359,0.0
0.2805,-0.0586,-0.907,-1.2512,1.4648,-1.3962,2024-02-11 20:31:57.377,0.0
0.2729,-0.0564,-0.9028,-1.3885,1.1444,-1.2054,2024-02-11 20:31:57.397,0.0
0.2739,-0.0518,-0.9019,-1.4648,1.1749,-1.4801,2024-02-11 20:31:57.417,0.0
0.2754,-0.0569,-0.906,-1.2512,1.2436,-1.3733,2024-02-11 20:31:57.448,0.0
0.2769,-0.0576,-0.9053,-1.1292,1.4114,-1.3962,2024-02-11 20:31:57.453,0.0
0.2769,-0.0579,-0.9119,-1.358,1.4954,-1.5869,2024-02-11 20:31:57.472,0.0
0.2844,-0.0547,-0.9219,-1.5335,1.503,-1.4114,2024-02-11 20:31:57.494,0.0
0.271,-0.0542,-0.9138,-1.4038,1.3885,-1.3351,2024-02-11 20:31:57.505,0.0
0.2751,-0.0593,-0.8962,-1.442,1.442,-0.9918,2024-02-11 20:31:57.525,0.0
0.2761,-0.0625,-0.9028,-1.2741,1.2589,-1.3504,2024-02-11 20:31:57.542,0.0
0.2747,-0.0522,-0.9055,-1.2207,1.3657,-1.3962,2024-02-11 20:31:57.579,0.0
0.2783,-0.0603,-0.9104,-1.4267,1.442,-1.4114,2024-02-11 20:31:57.582,0.0
0.2722,-0.0635,-0.9099,-1.2131,1.5182,-1.3809,2024-02-11 20:31:57.591,0.0
0.2766,-0.0581,-0.9214,-1.3275,1.5488,-1.1444,2024-02-11 20:31:57.615,0.0
0.2805,-0.0662,-0.9055,-1.3123,1.3885,-1.4572,2024-02-11 20:31:57.629,0.0
0.2803,-0.0527,-0.9097,-1.1826,1.4877,-1.1902,2024-02-11 20:31:57.647,0.0
0.2783,-0.0564,-0.9065,-1.3962,1.5869,-1.4038,2024-02-11 20:31:57.670,0.0
0.2729,-0.0569,-0.9143,-1.2436,1.4801,-1.2817,2024-02-11 20:31:57.686,0.0
0.2739,-0.0518,-0.9128,-1.3657,1.5182,-1.3275,2024-02-11 20:31:57.699,0.0
0.28,-0.0537,-0.908,-1.2436,1.4114,-1.3046,2024-02-11 20:31:57.721,0.0
0.2756,-0.0508,-0.916,-1.2512,1.3885,-1.3351,2024-02-11 20:31:57.738,0.0
0.2712,-0.0537,-0.9121,-1.1826,1.5182,-1.3428,2024-02-11 20:31:57.756,0.0
0.2725,-0.0576,-0.9055,-1.2512,1.7319,-1.2054,2024-02-11 20:31:57.772,0.0
0.2788,-0.0544,-0.9131,-1.4801,1.4801,-1.4267,2024-02-11 20:31:57.793,0.0
0.2722,-0.0498,-0.9004,-1.3504,1.236,-1.3504,2024-02-11 20:31:57.812,0.0
0.2756,-0.0557,-0.9058,-0.9537,1.1826,-1.2894,2024-02-11 20:31:57.824,0.0
0.2744,-0.0559,-0.9089,-1.2131,1.442,-1.4343,2024-02-11 20:31:57.843,0.0
0.271,-0.0581,-0.908,-1.152,1.4572,-1.3809,2024-02-11 20:31:57.862,0.0
0.2747,-0.0508,-0.9104,-1.5259,1.3809,-1.3657,2024-02-11 20:31:57.886,0.0
0.2742,-0.0549,-0.9065,-1.2436,1.2665,-1.3962,2024-02-11 20:31:57.910,0.0
0.2761,-0.0525,-0.9194,-1.2512,1.4191,-1.503,2024-02-11 20:31:57.923,0.0
0.2717,-0.0562,-0.9102,-1.2741,1.1749,-1.236,2024-02-11 20:31:57.939,0.0
0.2722,-0.0564,-0.9063,-1.2741,1.3657,-1.3275,2024-02-11 20:31:57.955,0.0
0.2803,-0.0566,-0.9148,-1.3123,1.2894,-1.3046,2024-02-11 20:31:57.971,0.0
0.2769,-0.0542,-0.9019,-1.3885,1.4191,-1.5106,2024-02-11 20:31:57.991,0.0
0.2715,-0.0566,-0.8975,-1.358,1.4801,-1.2207,2024-02-11 20:31:58.010,0.0
0.2812,-0.053,-0.9067,-1.2665,1.4496,-1.4343,2024-02-11 20:31:58.042,0.0
0.2705,-0.0552,-0.9116,-1.1902,1.3962,-1.236,2024-02-11 20:31:58.049,0.0
0.2766,-0.0564,-0.9072,-1.1063,1.2512,-1.3199,2024-02-11 20:31:58.064,0.0
0.2749,-0.0564,-0.9146,-1.236,1.4191,-1.3351,2024-02-11 20:31:58.082,0.0
0.2766,-0.0593,-0.9111,-1.1215,1.2131,-1.2207,2024-02-11 20:31:58.097,0.0
0.2815,-0.0566,-0.9092,-1.2131,1.2894,-1.4191,2024-02-11 20:31:58.119,0.0
0.2781,-0.0596,-0.9092,-1.1826,1.3733,-1.3046,2024-02-11 20:31:58.131,0.0
0.2747,-0.0613,-0.9084,-1.091,1.4267,-1.564,2024-02-11 20:31:58.165,0.0
0.2705,-0.0608,-0.9106,-1.3351,1.2741,-1.2817,2024-02-11 20:31:58.170,0.0
0.2812,-0.0627,-0.9043,-1.3275,1.3428,-1.3885,2024-02-11 20:31:58.191,0.0
0.2759,-0.0566,-0.9084,-1.2589,1.3428,-1.3123,2024-02-11 20:31:58.211,0.0
0.2793,-0.0542,-0.9148,-1.5259,1.4725,-1.3733,2024-02-11 20:31:58.241,0.0
0.2756,-0.0591,-0.9146,-1.3733,1.3275,-1.2589,2024-02-11 20:31:58.247,0.0
0.2715,-0.0525,-0.9155,-1.3351,1.4267,-1.3962,2024-02-11 20:31:58.256,0.0
0.2783,-0.0603,-0.9063,-0.946,1.4038,-1.4343,2024-02-11 20:31:58.278,0.0
0.2781,-0.0596,-0.9138,-1.4496,1.358,-1.297,2024-02-11 20:31:58.295,0.0
0.272,-0.0549,-0.9124,-1.2741,1.3199,-1.2817,2024-02-11 20:31:58.316,0.0
0.2788,-0.0537,-0.9067,-1.2283,1.4801,-1.2817,2024-02-11 20:31:58.349,0.0
0.2781,-0.0564,-0.9023,-1.564,1.2283,-1.3123,2024-02-11 20:31:58.350,0.0
0.2754,-0.0566,-0.9053,-1.0223,1.4801,-1.3962,2024-02-11 20:31:58.366,0.0
0.2756,-0.0579,-0.9036,-1.297,1.4954,-1.3199,2024-02-11 20:31:58.383,0.0
0.2793,-0.0564,-0.9084,-1.3123,1.5259,-1.5488,2024-02-11 20:31:58.400,0.0
0.2739,-0.0552,-0.9143,-1.3962,1.3046,-1.3046,2024-02-11 20:31:58.420,0.0
0.2742,-0.0581,-0.9146,-1.1902,1.4114,-1.2283,2024-02-11 20:31:58.444,0.0
0.2693,-0.0544,-0.9138,-1.3657,1.3275,-1.236,2024-02-11 20:31:58.458,0.0
0.2759,-0.0564,-0.9104,-1.3428,1.4343,-1.3733,2024-02-11 20:31:58.476,0.0
0.2751,-0.0535,-0.9124,-1.6174,1.4572,-1.3733,2024-02-11 20:31:58.493,0.0
0.2778,-0.054,-0.9111,-1.4114,1.3275,-1.2817,2024-02-11 20:31:58.515,0.0
0.2754,-0.062,-0.9094,-1.2817,1.442,-1.4725,2024-02-11 20:31:58.529,0.0
0.2747,-0.0566,-0.9136,-1.442,1.4725,-1.2283,2024-02-11 20:31:58.551,0.0
0.2737,-0.0596,-0.9099,-1.091,1.3046,-1.3962,2024-02-11 20:31:58.568,0.0
0.2737,-0.0596,-0.9197,-1.3657,1.4877,-1.4114,2024-02-11 20:31:58.588,0.0
0.2686,-0.0564,-0.9009,-1.3809,1.4191,-1.1444,2024-02-11 20:31:58.602,0.0
0.2737,-0.062,-0.9106,-1.4267,1.4114,-1.503,2024-02-11 20:31:58.621,0.0
0.2769,-0.0571,-0.9055,-1.2436,1.4572,-1.4496,2024-02-11 20:31:58.673,0.0
0.2834,-0.0557,-0.9138,-1.2436,1.6174,-1.2589,2024-02-11 20:31:58.674,0.0
0.2747,-0.0559,-0.9094,-1.3428,1.358,-1.4114,2024-02-11 20:31:58.674,0.0
0.2688,-0.0547,-0.9014,-1.3123,1.3885,-1.2589,2024-02-11 20:31:58.692,0.0
0.2737,-0.0554,-0.9031,-0.946,1.4191,-1.3275,2024-02-11 20:31:58.709,0.0
0.2683,-0.0583,-0.907,-1.5259,1.1826,-1.5259,2024-02-11 20:31:58.726,0.0
0.2747,-0.0593,-0.9028,-1.1139,1.4267,-1.5259,2024-02-11 20:31:58.746,0.0
0.2734,-0.0579,-0.9114,-1.4343,1.2817,-1.3428,2024-02-11 20:31:58.764,0.0
0.2837,-0.0525,-0.9041,-1.3733,1.358,-1.4496,2024-02-11 20:31:58.784,0.0
0.2727,-0.0581,-0.9136,-1.3504,1.3504,-1.236,2024-02-11 20:31:58.803,0.0
0.2759,-0.0605,-0.9128,-1.358,1.2436,-1.3885,2024-02-11 20:31:58.823,0.0
0.2722,-0.0559,-0.9136,-1.2817,1.1978,-1.4572,2024-02-11 20:31:58.853,0.0
0.2732,-0.0493,-0.9136,-1.236,1.2589,-1.297,2024-02-11 20:31:58.856,0.0
0.2722,-0.0562,-0.9119,-1.2131,1.5488,-1.5717,2024-02-11 20:31:58.875,0.0
0.2808,-0.0627,-0.9045,-1.1978,1.5717,-1.503,2024-02-11 20:31:58.896,0.0
0.2737,-0.0569,-0.9106,-1.3733,1.4114,-1.3046,2024-02-11 20:31:58.908,0.0
0.2756,-0.0532,-0.915,-1.4267,1.4038,-1.3885,2024-02-11 20:31:58.930,0.0
0.2747,-0.054,-0.9111,-1.2589,1.3046,-1.503,2024-02-11 20:31:58.976,0.0
0.2737,-0.0535,-0.9104,-1.4038,1.4114,-1.5106,2024-02-11 20:31:58.977,0.0
0.2766,-0.0579,-0.9133,-1.3657,1.4572,-1.3733,2024-02-11 20:31:58.982,0.0
0.2725,-0.0515,-0.9102,-1.297,1.3199,-1.2741,2024-02-11 20:31:59.000,0.0
0.2632,-0.0596,-0.9136,-1.152,1.4038,-1.4267,2024-02-11 20:31:59.015,0.0
0.271,-0.0596,-0.9006,-1.0757,1.4038,-1.3809,2024-02-11 20:31:59.035,0.0
0.2705,-0.0557,-0.9106,-1.2817,1.4572,-1.091,2024-02-11 20:31:59.050,0.0
0.2766,-0.0527,-0.9058,-1.4801,1.2894,-1.3123,2024-02-11 20:31:59.073,0.0
0.2693,-0.0566,-0.9111,-1.3275,1.4954,-1.3428,2024-02-11 20:31:59.086,0.0
0.2737,-0.0593,-0.9094,-1.4648,1.3657,-1.3123,2024-02-11 20:31:59.107,0.0
0.2759,-0.0579,-0.9026,-1.3428,1.3885,-1.3657,2024-02-11 20:31:59.119,0.0
0.2759,-0.0549,-0.9077,-1.3351,1.442,-1.3733,2024-02-11 20:31:59.139,0.0
0.2761,-0.054,-0.9072,-1.3962,1.297,-1.3504,2024-02-11 20:31:59.155,0.0
0.2734,-0.0571,-0.9124,-1.2131,1.3657,-1.4496,2024-02-11 20:31:59.179,0.0
0.2773,-0.0583,-0.9028,-1.3428,1.4725,-1.236,2024-02-11 20:31:59.195,0.0
0.2751,-0.053,-0.9077,-1.3504,1.3657,-1.2817,2024-02-11 20:31:59.212,0.0
0.2695,-0.054,-0.9099,-1.3046,1.5793,-1.4725,2024-02-11 20:31:59.230,0.0
0.2705,-0.0583,-0.9121,-1.2817,1.503,-1.3275,2024-02-11 20:31:59.261,0.0
0.2742,-0.0566,-0.9111,-1.2589,1.4648,-1.5259,2024-02-11 20:31:59.271,0.0
0.2773,-0.0591,-0.908,-1.2283,1.2894,-1.236,2024-02-11 20:31:59.284,0.0
0.2708,-0.0547,-0.9104,-1.297,1.2512,-1.3428,2024-02-11 20:31:59.309,0.0
0.2756,-0.0508,-0.9143,-1.3275,1.3733,-1.3962,2024-02-11 20:31:59.327,0.0
0.2725,-0.0537,-0.9119,-1.3123,1.3809,-1.1215,2024-02-11 20:31:59.344,0.0
0.2725,-0.0647,-0.9153,-1.358,1.3809,-1.3962,2024-02-11 20:31:59.363,0.0
0.2766,-0.0542,-0.9063,-0.9918,1.3046,-1.3962,2024-02-11 20:31:59.382,0.0
0.2773,-0.0498,-0.9038,-1.1597,1.297,-1.3962,2024-02-11 20:31:59.399,0.0
0.2756,-0.054,-0.9148,-1.1444,1.4572,-1.2741,2024-02-11 20:31:59.419,0.0
0.2703,-0.0574,-0.9033,-1.4267,1.3046,-1.3275,2024-02-11 20:31:59.438,0.0
0.2754,-0.0569,-0.9063,-1.2894,1.5411,-1.297,2024-02-11 20:31:59.458,0.0
0.272,-0.0537,-0.9036,-1.1444,1.3885,-1.4191,2024-02-11 20:31:59.473,0.0
0.2739,-0.0574,-0.9036,-1.236,1.2817,-1.4572,2024-02-11 20:31:59.488,0.0
0.2729,-0.0605,-0.9082,-1.3885,1.2589,-1.3657,2024-02-11 20:31:59.510,0.0
0.2742,-0.063,-0.9072,-1.358,1.4801,-1.3962,2024-02-11 20:31:59.525,0.0
0.2681,-0.0562,-0.9099,-1.152,1.2054,-1.3962,2024-02-11 20:31:59.542,0.0
0.2751,-0.0579,-0.917,-1.1673,1.3962,-1.2283,2024-02-11 20:31:59.568,0.0
0.2715,-0.0576,-0.9124,-1.152,1.3504,-1.4343,2024-02-11 20:31:59.584,0.0
0.2732,-0.0618,-0.9099,-1.4114,1.358,-1.3504,2024-02-11 20:31:59.600,0.0
0.2744,-0.0569,-0.9133,-1.3885,1.358,-1.3733,2024-02-11 20:31:59.617,0.0
0.2771,-0.0515,-0.9106,-1.1978,1.4267,-1.3351,2024-02-11 20:31:59.633,0.0
0.2737,-0.0496,-0.9167,-1.2436,1.4725,-1.2436,2024-02-11 20:31:59.657,0.0
0.2751,-0.0542,-0.9143,-1.2283,1.358,-1.5411,2024-02-11 20:31:59.669,0.0
0.2688,-0.0579,-0.908,-1.2665,1.5793,-1.3504,2024-02-11 20:31:59.693,0.0
0.2717,-0.0571,-0.9087,-1.3199,1.4572,-1.3199,2024-02-11 20:31:59.708,0.0
0.2734,-0.0554,-0.9124,-1.0757,1.1215,-1.5717,2024-02-11 20:31:59.729,0.0
0.2666,-0.05,-0.9153,-1.1597,1.5411,-1.3275,2024-02-11 20:31:59.744,0.0
0.2715,-0.0557,-0.918,-1.0452,1.5869,-1.3885,2024-02-11 20:31:59.765,0.0
0.2729,-0.0537,-0.9104,-1.2512,1.503,-1.2283,2024-02-11 20:31:59.779,0.0
0.2805,-0.0518,-0.9114,-1.3962,1.5793,-1.2436,2024-02-11 20:31:59.799,0.0
0.2717,-0.0542,-0.9014,-1.0223,1.3809,-1.4801,2024-02-11 20:31:59.817,0.0
0.2749,-0.0557,-0.9077,-1.3275,1.358,-1.3733,2024-02-11 20:31:59.839,0.0
0.2656,-0.0525,-0.905,-1.3504,1.3504,-1.4038,2024-02-11 20:31:59.854,0.0
0.2771,-0.051,-0.9146,-1.4343,1.4725,-1.4877,2024-02-11 20:31:59.872,0.0
0.2759,-0.0562,-0.9067,-1.2436,1.4877,-1.4648,2024-02-11 20:31:59.895,0.0
0.271,-0.0566,-0.9138,-1.1292,1.3275,-1.5869,2024-02-11 20:31:59.913,0.0
0.2783,-0.0525,-0.9075,-1.0834,1.3962,-1.358,2024-02-11 20:31:59.929,0.0
0.2749,-0.0508,-0.9124,-1.236,1.442,-1.236,2024-02-11 20:31:59.943,0.0
0.2729,-0.0566,-0.9121,-1.1826,1.442,-1.2817,2024-02-11 20:31:59.966,0.0
0.2734,-0.0583,-0.918,-1.3962,1.5182,-1.3428,2024-02-11 20:31:59.990,0.0
0.2747,-0.0535,-0.9131,-1.3657,1.4191,-1.2894,2024-02-11 20:32:00.005,0.0
0.2717,-0.0569,-0.9028,-1.3733,1.2207,-1.2894,2024-02-11 20:32:00.019,0.0
0.2781,-0.0544,-0.9094,-1.3733,1.4038,-1.4801,2024-02-11 20:32:00.036,0.0
0.2683,-0.0608,-0.9099,-1.358,1.4038,-1.3199,2024-02-11 20:32:00.050,0.0
0.2771,-0.0593,-0.9055,-1.5259,1.2207,-1.4267,2024-02-11 20:32:00.083,0.0
0.2717,-0.0571,-0.8977,-1.2436,1.503,-1.358,2024-02-11 20:32:00.091,0.0
0.2688,-0.0566,-0.9109,-1.3657,1.4648,-1.4496,2024-02-11 20:32:00.109,0.0
0.2791,-0.0569,-0.9084,-1.4343,1.4572,-1.3351,2024-02-11 20:32:00.128,0.0
0.2769,-0.0554,-0.9084,-1.3275,1.2512,-1.2741,2024-02-11 20:32:00.144,0.0
0.2756,-0.0552,-0.9172,-1.442,1.4954,-1.4038,2024-02-11 20:32:00.166,0.0
0.2722,-0.0603,-0.9199,-1.1444,1.4191,-1.3123,2024-02-11 20:32:00.181,0.0
0.2712,-0.0564,-0.9016,-1.2283,1.4572,-1.152,2024-02-11 20:32:00.200,0.0
0.2671,-0.0544,-0.9092,-1.4496,1.6479,-1.3962,2024-02-11 20:32:00.225,0.0
0.2744,-0.05,-0.9138,-1.03,1.4114,-1.3657,2024-02-11 20:32:00.238,0.0
0.2688,-0.063,-0.9016,-1.2283,1.3962,-1.3504,2024-02-11 20:32:00.259,0.0
0.2729,-0.051,-0.9065,-1.1063,1.6098,-1.3199,2024-02-11 20:32:00.280,0.0
0.2708,-0.0537,-0.9136,-1.1444,1.3123,-1.2817,2024-02-11 20:32:00.295,0.0
0.2817,-0.0579,-0.9072,-1.5106,1.3351,-1.2894,2024-02-11 20:32:00.315,0.0
0.2725,-0.0581,-0.907,-1.4496,1.3733,-1.4114,2024-02-11 20:32:00.333,0.0
0.2693,-0.0581,-0.908,-1.4343,1.3962,-1.1978,2024-02-11 20:32:00.353,0.0
0.2791,-0.0564,-0.9021,-1.1749,1.3351,-1.4648,2024-02-11 20:32:00.385,0.0
0.2771,-0.0571,-0.9084,-1.297,1.2131,-1.2817,2024-02-11 20:32:00.387,0.0
0.2732,-0.0598,-0.9082,-1.3885,1.3199,-1.4496,2024-02-11 20:32:00.401,0.0
0.272,-0.0576,-0.9067,-1.2741,1.3199,-1.3275,2024-02-11 20:32:00.419,0.0
0.2803,-0.0591,-0.9058,-1.6022,1.4191,-1.4114,2024-02-11 20:32:00.441,0.0
0.2769,-0.0557,-0.9092,-1.2894,1.3428,-1.3428,2024-02-11 20:32:00.459,0.0
0.2693,-0.0542,-0.9033,-1.1673,1.4038,-1.3275,2024-02-11 20:32:00.482,0.0
0.2732,-0.0513,-0.9153,-1.0452,1.3199,-1.236,2024-02-11 20:32:00.500,0.0
0.2776,-0.0605,-0.9102,-1.2589,1.3733,-1.3809,2024-02-11 20:32:00.515,0.0
0.2776,-0.0571,-0.9106,-1.297,1.4114,-1.3733,2024-02-11 20:32:00.533,0.0
0.2751,-0.0554,-0.9119,-1.3199,1.3199,-1.3504,2024-02-11 20:32:00.550,0.0
0.2712,-0.0576,-0.9072,-1.1292,1.3657,-1.2131,2024-02-11 20:32:00.571,0.0
0.2747,-0.0593,-0.9126,-1.297,1.3885,-1.2665,2024-02-11 20:32:00.588,0.0
0.2754,-0.0535,-0.9099,-1.3504,1.5106,-1.1902,2024-02-11 20:32:00.614,0.0
0.2703,-0.061,-0.9106,-1.1902,1.4648,-1.2665,2024-02-11 20:32:00.623,0.0
0.2725,-0.0522,-0.9106,-1.2207,1.5259,-1.5182,2024-02-11 20:32:00.641,0.0
0.2712,-0.0569,-0.905,-1.2894,1.4877,-1.4954,2024-02-11 20:32:00.662,0.0
0.2751,-0.0576,-0.9045,-1.1978,1.503,-1.2741,2024-02-11 20:32:00.676,0.0
0.2766,-0.0562,-0.9031,-1.2589,1.3809,-1.5335,2024-02-11 20:32:00.695,0.0
0.2715,-0.0603,-0.9111,-1.2512,1.2436,-1.3809,2024-02-11 20:32:00.713,0.0
0.2734,-0.062,-0.9048,-1.297,1.4648,-1.236,2024-02-11 20:32:00.735,0.0
0.2761,-0.0522,-0.9175,-1.358,1.4648,-1.2894,2024-02-11 20:32:00.748,0.0
0.2681,-0.0522,-0.9131,-1.1597,1.3428,-1.2894,2024-02-11 20:32:00.766,0.0
0.2798,-0.0588,-0.9128,-1.2131,1.4343,-1.3809,2024-02-11 20:32:00.784,0.0
0.2751,-0.0566,-0.9004,-1.3733,1.5793,-1.3657,2024-02-11 20:32:00.801,0.0
0.2764,-0.0571,-0.905,-1.1444,1.3657,-1.2665,2024-02-11 20:32:00.824,0.0
0.2786,-0.0581,-0.9075,-1.3351,1.3351,-1.5411,2024-02-11 20:32:00.841,0.0
0.2739,-0.0701,-0.9238,-3.2349,2.5253,-2.9221,2024-02-11 20:32:00.857,0.0
0.2422,-0.0759,-0.9353,-6.958,9.2163,-3.334,2024-02-11 20:32:00.880,0.0
0.2986,-0.0715,-0.8926,-8.934,9.5901,-4.0283,2024-02-11 20:32:00.898,0.0
0.3538,-0.1011,-0.9556,-7.6141,0.0381,-4.7989,2024-02-11 20:32:00.920,0.0
0.1863,-0.095,-0.8496,-6.6986,-7.637,-1.6174,2024-02-11 20:32:00.937,0.0
0.2727,-0.0098,-0.8037,-11.4212,3.3035,-4.6539,2024-02-11 20:32:00.956,0.0
0.2266,-0.054,-0.9417,-17.2043,-3.6392,0.6561,2024-02-11 20:32:00.978,0.0
0.28,0.0354,-0.8872,-9.5215,7.0953,-0.0839,2024-02-11 20:32:00.990,0.0
0.2932,0.084,-0.9253,-11.2381,-11.8103,0.0839,2024-02-11 20:32:01.012,0.0
0.3413,0.0725,-0.9814,-21.3013,-15.6555,-6.34,2024-02-11 20:32:01.027,0.0
0.2515,0.0063,-0.8442,-10.8719,-8.9111,-1.2741,2024-02-11 20:32:01.046,0.0
0.354,-0.2495,-0.804,2.9144,-15.5563,1.2741,2024-02-11 20:32:01.063,0.0
0.4404,-0.0789,-1.021,6.4774,-10.0327,-4.5624,2024-02-11 20:32:01.080,0.0
0.5654,0.0776,-1.0374,-1.8463,-0.7324,-8.0795,2024-02-11 20:32:01.101,0.0
0.5918,0.0034,-0.97,-12.7563,-9.8267,-10.9863,2024-02-11 20:32:01.120,0.0
0.4507,-0.0071,-1.0566,-29.686,-24.3149,-10.1776,2024-02-11 20:32:01.137,0.0
0.3928,-0.0325,-1.2087,-45.2271,-74.7833,-18.4784,2024-02-11 20:32:01.155,0.0
0.407,0.0532,-1.5889,-66.04,-139.9841,-24.559,2024-02-11 20:32:01.173,0.0
0.2251,0.0342,-1.8774,-90.126,-204.2847,-20.8588,2024-02-11 20:32:01.199,0.0
-0.0059,0.1289,-1.6487,-91.4383,-231.0867,-22.522,2024-02-11 20:32:01.216,0.0
-0.377,0.1685,-1.2524,-61.2488,-219.3985,-32.2266,2024-02-11 20:32:01.234,0.0
-0.3901,0.1355,-1.2405,-22.0718,-177.7191,-26.6724,2024-02-11 20:32:01.279,0.0
-0.4697,0.1846,-1.491,-3.685,-166.5421,-24.5361,2024-02-11 20:32:01.293,0.0
-0.3003,0.252,-1.5618,-21.6599,-152.4963,-20.7901,2024-02-11 20:32:01.302,0.0
-0.1931,0.3882,-1.1936,-36.4532,-135.5057,-20.3247,2024-02-11 20:32:01.314,0.0
-0.3162,0.3196,-1.1489,-28.4119,-129.1275,-7.4234,2024-02-11 20:32:01.331,0.0
-0.4084,0.2742,-1.0203,-26.5732,-128.0746,5.3329,2024-02-11 20:32:01.341,0.0
-0.333,0.1313,-0.99,-33.9737,-99.7849,15.1291,2024-02-11 20:32:01.359,0.0
-0.4612,0.051,-1.0474,-51.3306,-90.9729,23.9105,2024-02-11 20:32:01.378,0.0
-0.5505,0.0342,-0.9463,-43.8309,-89.0884,36.1481,2024-02-11 20:32:01.418,0.0
-0.604,0.0498,-0.7539,-24.5132,-49.324,36.4532,2024-02-11 20:32:01.419,0.0
-0.6394,0.1177,-0.5271,-8.1253,-10.8871,34.3781,2024-02-11 20:32:01.440,0.0
-0.6421,0.1768,-0.5283,10.0327,-16.1667,40.0162,2024-02-11 20:32:01.492,0.0
-0.656,0.208,-0.7402,15.4877,-6.3553,43.4875,2024-02-11 20:32:01.493,0.0
-0.5107,0.2383,-0.7507,9.3918,7.9803,36.3312,2024-02-11 20:32:01.493,0.0
-0.4785,0.196,-0.7847,6.3019,7.1793,30.9906,2024-02-11 20:32:01.507,0.0
-0.4744,0.1863,-0.7783,6.0196,2.6474,22.8882,2024-02-11 20:32:01.525,0.0
-0.468,0.1997,-0.7046,4.9133,-2.5024,19.7144,2024-02-11 20:32:01.540,0.0
-0.4941,0.2607,-0.8318,14.4043,-12.1841,20.34,2024-02-11 20:32:01.558,0.0
-0.5071,0.2375,-0.9175,18.5776,-28.2211,21.5225,2024-02-11 20:32:01.591,0.0
-0.5134,0.1487,-0.9014,15.7928,-44.9142,17.3035,2024-02-11 20:32:01.596,0.0
-0.5298,0.1067,-0.8389,12.3749,-60.1425,13.0997,2024-02-11 20:32:01.615,0.0
-0.5027,0.1294,-0.8308,9.5825,-72.7615,7.8735,2024-02-11 20:32:01.655,0.0
-0.509,0.1724,-0.8672,9.407,-79.2923,2.8839,2024-02-11 20:32:01.689,0.0
-0.5076,0.1418,-0.9299,6.4468,-83.5495,0.8621,2024-02-11 20:32:01.729,0.0
-0.4675,0.1509,-0.9148,2.2888,-89.1495,-3.1281,2024-02-11 20:32:01.730,0.0
-0.4441,0.1414,-0.8003,0.4501,-98.3734,-7.4921,2024-02-11 20:32:01.755,0.0
-0.4128,0.1177,-0.7295,5.2109,-107.7805,-11.3525,2024-02-11 20:32:01.758,0.0
-0.4265,0.1243,-0.7332,9.8724,-117.012,-12.5732,2024-02-11 20:32:01.764,0.0
-0.4175,0.1252,-0.7063,11.3831,-116.9128,-11.8637,2024-02-11 20:32:01.775,0.0
-0.3994,0.095,-0.6018,14.6713,-116.0431,-11.6119,2024-02-11 20:32:01.776,0.0
-0.3755,0.0657,-0.4727,21.5988,-114.418,-11.2991,2024-02-11 20:32:01.799,0.0
-0.3242,0.0398,-0.4299,24.8413,-114.4409,-13.1302,2024-02-11 20:32:01.820,0.0
-0.3115,0.0396,-0.4033,24.9863,-114.2654,-13.0234,2024-02-11 20:32:01.840,0.0
-0.3389,0.0618,-0.3962,23.9105,-112.1368,-14.0152,2024-02-11 20:32:01.845,0.0
-0.396,0.0718,-0.3037,22.438,-105.6595,-9.1705,2024-02-11 20:32:01.863,0.0
-0.3579,0.0605,-0.2534,21.904,-94.2688,-5.0964,2024-02-11 20:32:01.883,0.0
-0.1926,0.0952,-0.2554,22.728,-89.4928,-11.1237,2024-02-11 20:32:01.899,0.0
-0.3228,0.1252,-0.199,26.9089,-95.3979,-13.9618,2024-02-11 20:32:01.941,0.0
-0.3086,0.0742,-0.1609,31.2119,-91.4688,-15.8386,2024-02-11 20:32:01.947,0.0
-0.3179,0.0276,-0.1321,31.4636,-79.6356,-15.1749,2024-02-11 20:32:01.949,0.0
-0.3892,0.0303,-0.0498,27.6184,-69.4122,-11.1389,2024-02-11 20:32:01.967,0.0
-0.3347,0.0618,-0.0088,28.7018,-60.2798,-10.2844,2024-02-11 20:32:01.990,0.0
-0.3132,0.1121,-0.0466,35.7437,-51.3153,-10.7117,2024-02-11 20:32:02.004,0.0
-0.457,0.1077,-0.0732,45.2042,-43.045,-9.9716,2024-02-11 20:32:02.053,0.0
-0.4348,0.0447,-0.2031,39.6194,-37.0789,-12.6266,2024-02-11 20:32:02.054,0.0
-0.4998,0.0393,-0.136,30.7236,-25.589,-9.285,2024-02-11 20:32:02.055,0.0
-0.5122,0.0918,-0.0789,26.3367,-19.043,-5.8899,2024-02-11 20:32:02.072,0.0
-0.4795,0.1011,-0.0581,28.6484,-11.0779,-5.0659,2024-02-11 20:32:02.090,0.0
-0.4692,0.0347,-0.0205,32.6004,-4.3945,-6.8207,2024-02-11 20:32:02.112,0.0
-0.459,-0.0073,-0.0139,31.4941,3.1586,-2.5024,2024-02-11 20:32:02.128,0.0
-0.4358,0.0022,0.0518,29.541,9.3994,0.1755,2024-02-11 20:32:02.143,0.0
-0.468,0.0164,0.064,26.0849,16.4566,4.4861,2024-02-11 20:32:02.161,0.0
-0.498,0.0535,0.0657,25.0015,16.716,2.7924,2024-02-11 20:32:02.181,0.0
-0.5161,0.084,0.0486,30.2277,14.4806,-1.2665,2024-02-11 20:32:02.199,0.0
-0.5129,0.0923,-0.0127,33.2108,12.1536,-10.1089,2024-02-11 20:32:02.215,0.0
-0.5481,0.0227,-0.0481,32.074,21.8048,-15.1062,2024-02-11 20:32:02.230,0.0
-0.4863,0.0037,-0.0798,32.3792,31.8909,-16.7236,2024-02-11 20:32:02.251,0.0
-0.5791,0.0256,-0.0872,33.371,33.5007,-16.6016,2024-02-11 20:32:02.269,0.0
-0.6987,0.0249,-0.0693,30.6625,32.1198,-15.7547,2024-02-11 20:32:02.289,0.0
-0.7212,0.0361,-0.0798,26.1383,35.7819,-9.758,2024-02-11 20:32:02.309,0.0
-0.7024,0.0774,-0.0532,18.158,39.4745,-6.3858,2024-02-11 20:32:02.368,0.0
-0.781,0.0959,-0.061,12.1078,39.1693,-2.8534,2024-02-11 20:32:02.369,0.0
-0.8704,0.1257,-0.1096,7.4539,27.7939,-1.0376,2024-02-11 20:32:02.376,0.0
-0.968,0.1509,-0.1763,2.9678,18.9285,-1.6479,2024-02-11 20:32:02.376,0.0
-1.0168,0.2004,-0.1841,-4.5853,14.2059,0.2975,2024-02-11 20:32:02.389,0.0
-1.0254,0.1799,-0.179,-7.9346,4.776,5.1804,2024-02-11 20:32:02.407,0.0
-1.0002,0.165,-0.1934,-7.6447,-8.4686,3.1509,2024-02-11 20:32:02.456,0.0
-0.9824,0.1367,-0.2737,-7.6675,-21.1105,0.9384,2024-02-11 20:32:02.467,0.0
-0.9609,0.1113,-0.2983,-10.8032,-27.4963,1.4572,2024-02-11 20:32:02.468,0.0
-0.9255,0.0732,-0.3108,-9.4299,-25.9705,0.679,2024-02-11 20:32:02.482,0.0
-0.8826,0.0703,-0.3286,-7.637,-18.692,-2.2278,2024-02-11 20:32:02.498,0.0
-0.8638,0.0569,-0.2493,-3.067,-10.1471,-4.776,2024-02-11 20:32:02.515,0.0
-0.8591,0.0159,-0.2456,0.2365,-5.7907,-6.7978,2024-02-11 20:32:02.540,0.0
-0.8381,-0.01,-0.2366,2.0752,-0.2441,-7.309,2024-02-11 20:32:02.556,0.0
-0.7927,-0.0254,-0.2261,2.7695,7.6523,-7.5531,2024-02-11 20:32:02.569,0.0
-0.7488,-0.019,-0.1638,3.4409,8.2855,-7.1945,2024-02-11 20:32:02.593,0.0
-0.7732,0.0146,-0.1707,-0.3891,5.5008,-7.7896,2024-02-11 20:32:02.607,0.0
-0.7727,0.0483,-0.1995,-3.1815,6.6452,-6.7902,2024-02-11 20:32:04.085,0.0
-0.7393,0.0547,-0.2512,-6.6376,8.8196,-5.6686,2024-02-11 20:32:04.086,0.0
-0.7424,0.0466,-0.238,-7.6904,8.1024,-3.9368,2024-02-11 20:32:04.087,0.0
-0.752,0.0247,-0.2476,-9.1324,8.4152,-2.9526,2024-02-11 20:32:04.089,0.0
-0.7588,0.0159,-0.2417,-11.9019,5.7602,-2.4948,2024-02-11 20:32:04.090,0.0
-0.7795,0.0146,-0.2261,-14.8163,2.8763,-2.4872,2024-02-11 20:32:04.090,0.0
-0.7666,0.0151,-0.2153,-14.7934,3.5629,-2.1439,2024-02-11 20:32:04.091,0.0
-0.7966,0.0107,-0.2273,-13.0539,1.4114,-1.8692,2024-02-11 20:32:04.091,0.0
-0.7961,-0.0198,-0.2185,-10.4523,4.6387,-1.6861,2024-02-11 20:32:04.105,0.0
-0.7385,-0.0063,-0.2693,-11.4441,14.4348,-0.8774,2024-02-11 20:32:04.122,0.0
-0.7749,-0.0103,-0.3167,-11.9934,14.74,0.4578,2024-02-11 20:32:04.142,0.0
-0.8398,-0.0081,-0.3198,-12.8403,15.77,2.3041,2024-02-11 20:32:04.162,0.0
-0.8413,-0.0129,-0.3245,-12.0392,17.5705,2.3346,2024-02-11 20:32:04.178,0.0
-0.8381,-0.0139,-0.3235,-9.3384,16.8991,1.8387,2024-02-11 20:32:04.196,0.0
-0.8389,-0.0022,-0.3145,-7.782,12.0087,1.4267,2024-02-11 20:32:04.218,0.0
-0.8381,0.012,-0.3079,-8.0795,6.4468,0.5569,2024-02-11 20:32:04.230,0.0
-0.823,0.0334,-0.322,-9.2697,1.8387,-0.9155,2024-02-11 20:32:04.253,0.0
-0.7964,0.0476,-0.3323,-10.437,0.2213,-1.8387,2024-02-11 20:32:04.271,0.0
-0.7776,0.0562,-0.3442,-10.6277,-1.0757,-2.3575,2024-02-11 20:32:04.288,0.0
-0.7522,0.0505,-0.3181,-10.8871,-0.6561,-2.8305,2024-02-11 20:32:04.306,0.0
-0.7419,0.0464,-0.2805,-10.1166,0.9995,-3.3951,2024-02-11 20:32:04.326,0.0
-0.7236,0.033,-0.2529,-9.697,0.5264,-3.8986,2024-02-11 20:32:04.346,0.0
-0.7305,0.0225,-0.2742,-10.0937,-0.4272,-4.5547,2024-02-11 20:32:04.365,0.0
-0.738,0.0198,-0.2737,-10.025,1.8921,-4.9362,2024-02-11 20:32:04.378,0.0
-0.7383,0.0195,-0.2822,-9.7122,4.8294,-4.1885,2024-02-11 20:32:04.399,0.0
-0.7466,0.0156,-0.2805,-9.0942,6.1722,-3.5095,2024-02-11 20:32:04.418,0.0
-0.7585,0.0144,-0.2815,-9.4757,5.8594,-2.8687,2024-02-11 20:32:04.438,0.0
-0.7744,0.0066,-0.303,-9.3613,6.8283,-2.7542,2024-02-11 20:32:04.457,0.0
-0.7708,0.0137,-0.3088,-9.7046,8.1787,-1.9684,2024-02-11 20:32:04.475,0.0
-0.7808,0.0159,-0.3213,-9.3536,6.5842,-0.885,2024-02-11 20:32:04.493,0.0
-0.7976,0.0193,-0.3274,-9.697,3.9368,-0.4501,2024-02-11 20:32:04.512,0.0
-0.7947,0.0278,-0.3271,-9.5978,3.3951,-0.0381,2024-02-11 20:32:04.525,0.0
-0.7869,0.0261,-0.3149,-8.6746,2.0523,-0.5112,2024-02-11 20:32:04.548,0.0
-0.7856,0.0251,-0.3184,-7.7744,0.1221,-1.2207,2024-02-11 20:32:04.562,0.0
-0.7803,0.0269,-0.3086,-6.6605,-0.8774,-2.0752,2024-02-11 20:32:04.582,0.0
-0.772,0.0305,-0.3071,-6.0883,-0.885,-2.3651,2024-02-11 20:32:04.611,0.0
-0.7644,0.0391,-0.3086,-6.7368,-2.0599,-2.8,2024-02-11 20:32:04.651,0.0
-0.7634,0.0366,-0.2944,-6.8588,-1.9608,-2.9678,2024-02-11 20:32:04.652,0.0
-0.7585,0.0454,-0.3088,-6.9122,-1.3046,-3.746,2024-02-11 20:32:04.657,0.0
-0.7578,0.0342,-0.2917,-6.9122,-1.1597,-3.9673,2024-02-11 20:32:04.670,0.0
-0.7678,0.0232,-0.2861,-7.2174,-0.679,-4.0131,2024-02-11 20:32:04.693,0.0
-0.7642,0.0188,-0.2759,-6.7978,0.0687,-3.8071,2024-02-11 20:32:04.711,0.0
-0.7615,0.0046,-0.272,-6.2485,0.5417,-3.7842,2024-02-11 20:32:04.730,0.0
-0.7561,0.0007,-0.2854,-5.7526,-0.412,-3.3493,2024-02-11 20:32:04.749,0.0
-0.7615,-0.0034,-0.2974,-5.5618,-0.7248,-3.1662,2024-02-11 20:32:04.767,0.0
-0.7671,-0.0093,-0.2896,-5.2795,-0.4349,-2.8458,2024-02-11 20:32:04.784,0.0
-0.7668,-0.0071,-0.3064,-4.4708,0.1144,-2.861,2024-02-11 20:32:04.802,0.0
-0.7705,-0.0088,-0.2976,-2.8687,0.2365,-1.9684,2024-02-11 20:32:04.819,0.0
-0.7808,-0.0076,-0.2937,-1.3885,-0.2823,-1.7471,2024-02-11 20:32:04.839,0.0
-0.7766,-0.0066,-0.3037,-0.8469,-1.5259,-1.3046,2024-02-11 20:32:04.856,0.0
-0.7717,-0.0042,-0.2935,-0.206,-1.6708,-0.5722,2024-02-11 20:32:04.877,0.0
-0.7617,0.0098,-0.2871,1.1292,-1.3504,-0.0763,2024-02-11 20:32:04.890,0.0
-0.7585,0.0146,-0.2903,1.6861,-2.1057,0.4044,2024-02-11 20:32:04.912,0.0
-0.7705,0.0354,-0.2932,1.9302,-2.0294,0.9537,2024-02-11 20:32:04.932,0.0
-0.7622,0.0386,-0.2888,2.2202,-1.1444,1.1063,2024-02-11 20:32:04.949,0.0
-0.7666,0.0413,-0.2878,1.6632,-0.618,1.1368,2024-02-11 20:32:04.969,0.0
-0.7581,0.0483,-0.2761,1.1978,-0.061,1.1139,2024-02-11 20:32:04.984,0.0
-0.7556,0.0493,-0.2703,0.8469,0.3052,0.7935,2024-02-11 20:32:05.005,0.0
-0.7561,0.0444,-0.2686,0.8469,0.1907,0.2975,2024-02-11 20:32:05.018,0.0
-0.7495,0.0442,-0.281,0.1984,0.4196,-0.267,2024-02-11 20:32:05.039,0.0
-0.751,0.0479,-0.2761,0.0305,1.2512,-0.473,2024-02-11 20:32:05.059,0.0
-0.7546,0.0518,-0.2844,-0.3052,2.0447,-0.8774,2024-02-11 20:32:05.076,0.0
-0.7583,0.0374,-0.2874,-0.4044,1.6403,-1.1139,2024-02-11 20:32:05.095,0.0
-0.7766,0.0417,-0.2795,-0.3281,2.3651,-1.2512,2024-02-11 20:32:05.112,0.0
-0.7717,0.0369,-0.2781,0.4959,2.861,-0.946,2024-02-11 20:32:05.128,0.0
-0.7632,0.0293,-0.29,0.6866,2.5024,-0.824,2024-02-11 20:32:05.145,0.0
-0.7722,0.0247,-0.2854,0.3815,2.1362,-0.4044,2024-02-11 20:32:05.164,0.0
-0.7559,0.0315,-0.2937,0.0534,2.2049,0.0839,2024-02-11 20:32:05.186,0.0
-0.7603,0.0393,-0.2959,0.6104,2.8381,0.145,2024-02-11 20:32:05.207,0.0
-0.7634,0.03,-0.2947,0.9918,2.2125,0.5417,2024-02-11 20:32:05.220,0.0
-0.7629,0.041,-0.303,1.0757,2.6321,0.7782,2024-02-11 20:32:05.237,0.0
-0.762,0.0396,-0.2981,0.9918,2.4719,0.1831,2024-02-11 20:32:05.257,0.0
-0.762,0.0388,-0.2869,1.3733,2.5177,-0.0839,2024-02-11 20:32:05.274,0.0
-0.7598,0.0359,-0.292,1.0452,2.121,-0.0916,2024-02-11 20:32:05.296,0.0
-0.7681,0.0325,-0.2869,0.7858,1.1978,-0.4654,2024-02-11 20:32:05.310,0.0
-0.7688,0.0486,-0.2876,0.4959,1.5335,-0.1373,2024-02-11 20:32:05.331,0.0
-0.7739,0.0447,-0.2949,0.6027,2.0142,-0.1755,2024-02-11 20:32:05.346,0.0
-0.7639,0.0413,-0.2776,1.3885,2.7771,-0.7782,2024-02-11 20:32:05.365,0.0
-0.7556,0.0381,-0.281,1.7471,2.3041,-1.03,2024-02-11 20:32:05.383,0.0
-0.7551,0.0303,-0.302,1.709,1.915,-1.1368,2024-02-11 20:32:05.400,0.0
-0.7705,0.0356,-0.2969,1.1063,1.4038,-0.7401,2024-02-11 20:32:05.420,0.0
-0.7661,0.0454,-0.2993,1.442,2.3346,-0.5798,2024-02-11 20:32:05.437,0.0
-0.7639,0.0488,-0.2961,1.4572,2.0676,-0.5875,2024-02-11 20:32:05.456,0.0
-0.7717,0.042,-0.2981,1.2436,2.1362,-0.3662,2024-02-11 20:32:05.474,0.0
-0.7576,0.0361,-0.2852,1.0986,1.4954,-0.4959,2024-02-11 20:32:05.493,0.0
-0.7703,0.0417,-0.2927,0.4501,0.4044,-0.2747,2024-02-11 20:32:05.510,0.0
-0.7659,0.0449,-0.2888,0.7019,1.3428,-0.2518,2024-02-11 20:32:05.528,0.0
-0.7632,0.051,-0.2957,0.9689,2.3956,-0.4654,2024-02-11 20:32:05.545,0.0
-0.7566,0.0437,-0.2864,1.3733,2.3804,-0.7401,2024-02-11 20:32:05.561,0.0
-0.7529,0.0376,-0.2849,1.6174,2.4719,-1.2054,2024-02-11 20:32:05.580,0.0
-0.7537,0.0454,-0.2891,1.0147,1.9684,-1.3885,2024-02-11 20:32:05.598,0.0
-0.76,0.0491,-0.2893,0.5798,2.3499,-1.6556,2024-02-11 20:32:05.624,0.0
-0.7629,0.0522,-0.2969,0.7629,3.3646,-1.4038,2024-02-11 20:32:05.634,0.0
-0.7666,0.0437,-0.2981,0.473,3.8681,-1.0986,2024-02-11 20:32:05.656,0.0
-0.759,0.0415,-0.2844,-0.0381,2.9373,-1.1597,2024-02-11 20:32:05.671,0.0
-0.7722,0.0359,-0.2859,-0.1907,2.4338,-0.9079,2024-02-11 20:32:05.689,0.0
-0.7678,0.0422,-0.2932,-0.4578,2.6703,-0.9384,2024-02-11 20:32:05.710,0.0
-0.7715,0.0383,-0.2983,-0.3052,2.3727,-0.8392,2024-02-11 20:32:05.726,0.0
-0.7778,0.0371,-0.301,-0.2441,2.5406,-0.885,2024-02-11 20:32:05.744,0.0
-0.7646,0.031,-0.2854,-0.1297,2.2278,-0.8087,2024-02-11 20:32:05.761,0.0
-0.7561,0.0293,-0.2937,-0.1144,2.1057,-0.7248,2024-02-11 20:32:05.778,0.0
-0.7632,0.0376,-0.2864,-0.2975,0.9079,-0.9689,2024-02-11 20:32:05.800,0.0
-0.7683,0.0403,-0.2905,-0.5875,1.03,-1.1139,2024-02-11 20:32:07.104,0.0
-0.7615,0.0417,-0.3008,-0.8926,0.9079,-1.3657,2024-02-11 20:32:07.109,0.0
-0.7607,0.0493,-0.3088,-1.0529,1.1215,-1.5945,2024-02-11 20:32:07.110,0.0
-0.769,0.0425,-0.3013,-0.7782,2.0828,-1.7624,2024-02-11 20:32:07.110,0.0
-0.7595,0.0352,-0.28,-0.6485,2.2964,-1.6479,2024-02-11 20:32:07.111,0.0
-0.7576,0.0247,-0.283,-0.7324,1.564,-1.5793,2024-02-11 20:32:07.112,0.0
-0.7571,0.033,-0.2847,-1.1139,1.8921,-1.1673,2024-02-11 20:32:07.113,0.0
-0.762,0.0354,-0.3018,-1.1444,2.2964,-0.9079,2024-02-11 20:32:07.114,0.0
-0.7598,0.0435,-0.2969,-0.9537,2.7847,-0.7706,2024-02-11 20:32:07.122,0.0
-0.7461,0.042,-0.3052,-1.6479,2.2736,-1.1902,2024-02-11 20:32:07.143,0.0
-0.7534,0.0435,-0.312,-1.5793,2.861,-1.3962,2024-02-11 20:32:07.164,0.0
-0.7566,0.0439,-0.3208,-2.1362,2.8687,-1.0834,2024-02-11 20:32:07.180,0.0
-0.7717,0.0464,-0.3088,-2.6169,2.6245,-1.0605,2024-02-11 20:32:07.203,0.0
-0.7595,0.0457,-0.2954,-1.6251,3.0518,-1.2207,2024-02-11 20:32:07.232,0.0
-0.7671,0.0332,-0.312,-1.3657,2.2202,-1.5488,2024-02-11 20:32:07.247,0.0
-0.7539,0.0308,-0.314,-1.0757,1.7395,-1.6098,2024-02-11 20:32:07.258,0.0
-0.7625,0.0386,-0.3174,-2.0447,0.351,-1.0376,2024-02-11 20:32:07.275,0.0
-0.7588,0.0471,-0.3203,-2.7084,0.6943,-1.3809,2024-02-11 20:32:07.293,0.0
-0.7683,0.0483,-0.3025,-1.5793,1.564,-1.5182,2024-02-11 20:32:07.309,0.0
-0.7583,0.0403,-0.314,-0.7782,1.6174,-1.8845,2024-02-11 20:32:07.329,0.0
-0.7524,0.0315,-0.3015,-0.8163,1.5335,-1.8005,2024-02-11 20:32:07.349,0.0
-0.7595,0.0349,-0.3037,-1.3809,0.4959,-1.8158,2024-02-11 20:32:07.365,0.0
-0.7698,0.0454,-0.3096,-2.121,0.2213,-1.5488,2024-02-11 20:32:07.379,0.0
-0.7615,0.0513,-0.3147,-1.1978,0.8316,-1.3809,2024-02-11 20:32:07.399,0.0
-0.7549,0.0437,-0.3142,-1.1063,1.442,-1.152,2024-02-11 20:32:07.418,0.0
-0.7446,0.0417,-0.3047,-1.6327,0.7782,-1.1063,2024-02-11 20:32:07.438,0.0
-0.7644,0.0471,-0.314,-1.9989,0.0763,-1.1597,2024-02-11 20:32:07.455,0.0
-0.7563,0.0498,-0.3259,-2.1744,0.3128,-0.9537,2024-02-11 20:32:07.469,0.0
-0.7561,0.0518,-0.3015,-1.8768,0.7858,-1.236,2024-02-11 20:32:07.491,0.0
-0.752,0.05,-0.2988,-1.1215,1.2741,-1.6098,2024-02-11 20:32:07.510,0.0
-0.7507,0.0391,-0.3013,-0.946,0.473,-2.0294,2024-02-11 20:32:07.526,0.0
-0.7546,0.0439,-0.3091,-1.5106,0.1144,-1.6479,2024-02-11 20:32:07.544,0.0
-0.7546,0.0481,-0.321,-1.9302,0.8469,-1.6632,2024-02-11 20:32:07.565,0.0
-0.7544,0.0464,-0.3123,-1.8005,1.1368,-1.8311,2024-02-11 20:32:07.580,0.0
-0.7603,0.0493,-0.2939,-1.1749,1.4191,-1.8692,2024-02-11 20:32:07.600,0.0
-0.7529,0.0413,-0.301,-1.0757,1.2207,-1.4954,2024-02-11 20:32:07.618,0.0
-0.7493,0.05,-0.303,-1.6937,0.473,-1.3199,2024-02-11 20:32:07.636,0.0
-0.7585,0.05,-0.2998,-1.3962,1.1139,-1.2817,2024-02-11 20:32:07.657,0.0
-0.7451,0.0435,-0.3103,-1.8082,1.9531,-0.7935,2024-02-11 20:32:07.675,0.0
-0.7571,0.0459,-0.3135,-2.2659,1.3428,-0.8698,2024-02-11 20:32:07.695,0.0
-0.7629,0.0432,-0.304,-1.3733,2.0447,-0.9079,2024-02-11 20:32:07.711,0.0
-0.7517,0.0371,-0.314,-1.236,2.4338,-0.9537,2024-02-11 20:32:07.734,0.0
-0.7598,0.041,-0.3157,-1.5488,0.5569,-0.8545,2024-02-11 20:32:07.746,0.0
-0.7571,0.0486,-0.2957,-0.6943,1.8005,-0.8469,2024-02-11 20:32:07.763,0.0
-0.7546,0.0474,-0.3201,-0.9003,1.4725,-1.0757,2024-02-11 20:32:07.782,0.0
-0.7661,0.0488,-0.3059,-1.503,1.0681,-1.1826,2024-02-11 20:32:07.802,0.0
-0.7568,0.0522,-0.3013,-0.7629,1.7624,-1.03,2024-02-11 20:32:07.819,0.0
-0.759,0.0442,-0.3103,-0.7095,1.1902,-1.3962,2024-02-11 20:32:07.835,0.0
-0.7561,0.0408,-0.3125,-0.6714,1.2207,-1.0681,2024-02-11 20:32:07.857,0.0
-0.7568,0.0437,-0.3215,-1.5182,1.2665,-0.8392,2024-02-11 20:32:07.874,0.0
-0.7649,0.0466,-0.2852,-1.8845,0.5264,-0.7401,2024-02-11 20:32:07.895,0.0
-0.7581,0.054,-0.3013,-1.2283,0.8698,-1.2054,2024-02-11 20:32:07.913,0.0
-0.7573,0.0569,-0.3013,-1.0147,0.3738,-1.2436,2024-02-11 20:32:07.929,0.0
-0.7639,0.0474,-0.3171,-0.8469,0.7706,-1.2283,2024-02-11 20:32:07.945,0.0
-0.7544,0.0444,-0.3164,-1.3046,0.8774,-1.152,2024-02-11 20:32:07.964,0.0
-0.7622,0.0454,-0.2969,-1.0986,0.4425,-1.091,2024-02-11 20:32:07.985,0.0
-0.7544,0.0486,-0.2986,-0.8011,1.0071,-1.6327,2024-02-11 20:32:08.003,0.0
-0.7573,0.0447,-0.3081,-0.5035,0.9232,-1.6327,2024-02-11 20:32:08.022,0.0
-0.7483,0.0513,-0.3054,-1.2665,1.152,-1.4572,2024-02-11 20:32:08.041,0.0
-0.7544,0.0461,-0.3015,-1.358,0.4654,-1.1978,2024-02-11 20:32:08.056,0.0
-0.7542,0.0493,-0.2957,-1.2207,1.3199,-1.2512,2024-02-11 20:32:08.086,0.0
-0.7449,0.0515,-0.3013,-1.0071,1.8768,-1.5564,2024-02-11 20:32:08.093,0.0
-0.7556,0.0427,-0.3015,-1.2054,2.0065,-1.2589,2024-02-11 20:32:08.110,0.0
-0.7368,0.0505,-0.3071,-0.9079,2.0752,-1.236,2024-02-11 20:32:08.131,0.0
-0.7532,0.0498,-0.3049,-1.2894,1.6556,-1.1368,2024-02-11 20:32:08.154,0.0
-0.7542,0.0483,-0.3103,-1.0605,1.8768,-1.2741,2024-02-11 20:32:08.166,0.0
-0.6846,0.043,-0.3188,-1.4877,4.5624,-2.3727,2024-02-11 20:32:08.186,0.0
-0.7512,0.0642,-0.3276,-2.1591,1.6479,-1.3504,2024-02-11 20:32:08.203,0.0
-0.7463,0.0344,-0.3049,-0.4654,3.952,-1.2589,2024-02-11 20:32:08.222,0.0
-0.7678,0.0479,-0.3157,-1.7471,1.2436,-0.6714,2024-02-11 20:32:08.242,0.0
-0.7654,0.0464,-0.3191,-1.5945,1.4343,-0.6332,2024-02-11 20:32:08.260,0.0
-0.7678,0.0513,-0.303,-0.9384,1.5259,-0.885,2024-02-11 20:32:08.275,0.0
-0.7646,0.0464,-0.3142,-0.9384,1.8463,-0.9003,2024-02-11 20:32:08.296,0.0
-0.7566,0.0439,-0.3052,-0.4349,2.4414,-1.4877,2024-02-11 20:32:08.311,0.0
-0.7505,0.0474,-0.2944,-0.7629,1.1673,-1.3504,2024-02-11 20:32:08.329,0.0
-0.7578,0.041,-0.3025,-1.2207,0.9079,-1.4954,2024-02-11 20:32:08.347,0.0
-0.7578,0.054,-0.304,-1.1215,1.6251,-1.6251,2024-02-11 20:32:08.364,0.0
-0.7542,0.0503,-0.3118,-0.7553,2.8305,-1.8387,2024-02-11 20:32:08.382,0.0
-0.7603,0.0403,-0.3044,-1.03,2.3193,-1.6251,2024-02-11 20:32:08.401,0.0
-0.7498,0.0532,-0.2944,-1.2741,3.1586,-1.7853,2024-02-11 20:32:08.418,0.0
-0.7507,0.0459,-0.293,-1.5945,2.6169,-1.8616,2024-02-11 20:32:08.438,0.0
-0.7505,0.0579,-0.301,-2.9068,3.0518,-1.9836,2024-02-11 20:32:08.454,0.0
-0.7495,0.0562,-0.29,-2.5787,4.4785,-2.3422,2024-02-11 20:32:08.474,0.0
-0.7527,0.0471,-0.301,-1.7014,5.1498,-2.2507,2024-02-11 20:32:08.490,0.0
-0.7585,0.0364,-0.3142,-1.9455,4.4022,-2.2049,2024-02-11 20:32:08.512,0.0
-0.7661,0.0398,-0.3181,-1.9913,3.7003,-2.0828,2024-02-11 20:32:08.529,0.0
-0.7776,0.042,-0.3191,-1.709,4.1656,-2.1057,2024-02-11 20:32:08.549,0.0
-0.7786,0.0356,-0.3076,-1.4114,4.1656,-2.1667,2024-02-11 20:32:08.584,0.0
-0.77,0.0356,-0.3015,-1.1292,4.0665,-2.0447,2024-02-11 20:32:08.585,0.0
-0.7566,0.0447,-0.3037,-0.6943,4.4785,-2.2964,2024-02-11 20:32:08.599,0.0
-0.7449,0.0498,-0.304,-0.4044,4.3106,-2.3193,2024-02-11 20:32:08.617,0.0
-0.7371,0.0417,-0.3035,-0.4807,3.9597,-2.121,2024-02-11 20:32:08.639,0.0
-0.7285,0.0437,-0.3057,-1.5869,4.4785,-1.6403,2024-02-11 20:32:08.653,0.0
-0.7261,0.0483,-0.3093,-2.8763,5.2109,-1.7471,2024-02-11 20:32:08.675,0.0
-0.7412,0.0564,-0.3298,-2.9373,5.4321,-1.503,2024-02-11 20:32:08.694,0.0
-0.7515,0.0549,-0.3235,-2.4567,6.0654,-1.2436,2024-02-11 20:32:08.709,0.0
-0.7527,0.0364,-0.3245,-1.8692,6.1569,-1.0071,2024-02-11 20:32:08.725,0.0
-0.7664,0.0278,-0.3455,-1.8005,4.4022,-0.6638,2024-02-11 20:32:08.743,0.0
-0.7747,0.0234,-0.3401,-1.5335,2.8229,-0.4807,2024-02-11 20:32:08.763,0.0
-0.7883,0.0222,-0.3362,-0.7782,1.4954,0.0305,2024-02-11 20:32:08.779,0.0
-0.7859,0.03,-0.3433,-0.3281,0.4272,0.206,2024-02-11 20:32:08.798,0.0
-0.7834,0.0212,-0.3369,-0.351,-0.3052,-0.0229,2024-02-11 20:32:08.813,0.0
-0.7676,0.0449,-0.3289,-0.0916,-0.0839,0.3281,2024-02-11 20:32:08.832,0.0
-0.7454,0.0444,-0.3167,0.1068,-0.3586,0.0534,2024-02-11 20:32:08.849,0.0
-0.74,0.0493,-0.3201,-0.7248,-0.9995,-0.1221,2024-02-11 20:32:08.871,0.0
-0.7324,0.0591,-0.3118,-1.1139,-1.2436,-0.1526,2024-02-11 20:32:08.890,0.0
-0.728,0.0596,-0.3108,-0.4959,0.2365,-0.2213,2024-02-11 20:32:08.903,0.0
-0.7266,0.0632,-0.3257,-0.1907,1.7166,-0.4807,2024-02-11 20:32:08.923,0.0
-0.7341,0.0544,-0.301,-0.1831,2.5253,-0.3128,2024-02-11 20:32:08.942,0.0
-0.7371,0.0403,-0.2993,-0.5875,3.9597,-0.1678,2024-02-11 20:32:08.960,0.0
-0.7349,0.0479,-0.28,-0.679,5.2338,0.1297,2024-02-11 20:32:09.010,0.0
-0.7195,0.0466,-0.2778,-0.946,6.7596,-0.2213,2024-02-11 20:32:09.011,0.0
-0.7261,0.0479,-0.2844,-1.1826,8.4076,-0.3738,2024-02-11 20:32:09.011,0.0
-0.7205,0.0503,-0.2874,-2.182,10.9253,-0.3891,2024-02-11 20:32:09.031,0.0
-0.7122,0.0593,-0.2856,-2.2812,14.2365,-0.5569,2024-02-11 20:32:09.048,0.0
-0.7095,0.0613,-0.301,-2.1133,15.5792,-1.0376,2024-02-11 20:32:09.069,0.0
-0.7144,0.0571,-0.3044,-2.8915,16.4185,-1.1749,2024-02-11 20:32:09.084,0.0
-0.7131,0.0703,-0.3447,-3.6774,17.0135,-0.946,2024-02-11 20:32:09.106,0.0
-0.7356,0.0693,-0.3379,-3.5706,17.54,-0.9613,2024-02-11 20:32:09.120,0.0
-0.7363,0.0596,-0.3584,-4.158,18.8141,-1.1139,2024-02-11 20:32:09.141,0.0
-0.7422,0.0542,-0.3818,-5.2032,17.4484,-0.8621,2024-02-11 20:32:09.159,0.0
-0.7466,0.0652,-0.4019,-6.7062,15.8081,-0.824,2024-02-11 20:32:09.178,0.0
-0.7522,0.0725,-0.4167,-6.6452,12.7258,-0.3891,2024-02-11 20:32:09.197,0.0
-0.7695,0.071,-0.4226,-5.7449,8.9951,-0.4196,2024-02-11 20:32:09.215,0.0
-0.7637,0.0583,-0.4302,-4.3106,6.7825,-1.3504,2024-02-11 20:32:09.233,0.0
-0.7671,0.0608,-0.4409,-4.6387,3.891,-2.1362,2024-02-11 20:32:09.253,0.0
-0.7766,0.0564,-0.4363,-5.5084,1.1139,-2.7771,2024-02-11 20:32:09.267,0.0
-0.7844,0.0642,-0.4102,-5.6381,-0.7706,-3.2196,2024-02-11 20:32:09.286,0.0
-0.7725,0.0596,-0.3784,-4.2648,-2.594,-3.3569,2024-02-11 20:32:09.305,0.0
-0.7473,0.0432,-0.3618,-3.212,-3.7308,-3.7003,2024-02-11 20:32:09.329,0.0
-0.7407,0.0508,-0.3518,-3.334,-4.7302,-4.1351,2024-02-11 20:32:09.344,0.0
-0.7173,0.0535,-0.3535,-3.9444,-4.0894,-4.0359,2024-02-11 20:32:09.358,0.0
-0.7119,0.0625,-0.3401,-3.7994,-1.9684,-3.9597,2024-02-11 20:32:09.377,0.0
-0.6921,0.0544,-0.3354,-3.3417,0.1144,-3.746,2024-02-11 20:32:09.396,0.0
-0.6814,0.0481,-0.3269,-3.5858,1.1826,-3.5553,2024-02-11 20:32:09.414,0.0
-0.6794,0.0461,-0.3245,-3.8223,3.0212,-3.2043,2024-02-11 20:32:09.430,0.0
-0.6821,0.0486,-0.3484,-3.6011,4.6692,-2.8076,2024-02-11 20:32:09.450,0.0
-0.6978,0.05,-0.3467,-3.3493,5.9204,-2.5711,2024-02-11 20:32:09.470,0.0
-0.7041,0.0464,-0.3718,-4.1046,6.5155,-2.0065,2024-02-11 20:32:09.499,0.0
-0.7136,0.0547,-0.3645,-5.3787,7.637,-1.5793,2024-02-11 20:32:09.503,0.0
-0.728,0.0642,-0.3638,-4.9744,8.6746,-0.8469,2024-02-11 20:32:09.523,0.0
-0.7236,0.0676,-0.3638,-5.1117,8.0566,-0.6638,2024-02-11 20:32:09.537,0.0
-0.7302,0.0706,-0.3757,-5.5618,8.0414,-0.7172,2024-02-11 20:32:09.558,0.0
-0.7278,0.0647,-0.3743,-4.8676,7.8812,-0.9842,2024-02-11 20:32:09.578,0.0
-0.7175,0.064,-0.3936,-4.364,7.8125,-1.3046,2024-02-11 20:32:09.601,0.0
-0.7085,0.0608,-0.4004,-4.776,7.7515,-1.6632,2024-02-11 20:32:09.609,0.0
-0.697,0.0618,-0.3801,-3.6316,8.4305,-2.5482,2024-02-11 20:32:09.630,0.0
-0.6951,0.0613,-0.395,-2.9221,8.4534,-3.212,2024-02-11 20:32:09.648,0.0
-0.6919,0.0623,-0.4055,-3.0899,9.14,-3.5553,2024-02-11 20:32:09.676,0.0
-0.7078,0.0679,-0.4204,-3.7231,8.8577,-2.8458,2024-02-11 20:32:09.686,0.0
-0.717,0.0735,-0.4087,-3.4332,9.7275,-2.3346,2024-02-11 20:32:09.703,0.0
-0.7112,0.0537,-0.4009,-1.8921,9.8801,-1.8921,2024-02-11 20:32:09.725,0.0
-0.7117,0.0393,-0.3972,-1.709,8.7814,-1.2283,2024-02-11 20:32:09.739,0.0
-0.7278,0.0276,-0.3904,-2.0981,7.0496,-0.3891,2024-02-11 20:32:09.765,0.0
-0.7378,0.0325,-0.3904,-2.5635,6.6605,0.3128,2024-02-11 20:32:09.775,0.0
-0.7388,0.042,-0.4004,-2.0523,6.5689,0.4807,2024-02-11 20:32:09.797,0.0
-0.7424,0.042,-0.3977,-0.8926,5.7602,0.6943,2024-02-11 20:32:09.814,0.0
-0.7324,0.0283,-0.3879,0.3662,6.3858,0.3586,2024-02-11 20:32:09.831,0.0
-0.7249,0.0317,-0.3721,0.5798,5.6534,-0.1297,2024-02-11 20:32:09.849,0.0
-0.7266,0.0344,-0.3936,-0.2747,4.9744,-0.0763,2024-02-11 20:32:09.866,0.0
-0.7241,0.0627,-0.3958,-1.1749,5.2338,0.3357,2024-02-11 20:32:09.884,0.0
-0.7146,0.0715,-0.3965,-0.3738,5.6534,0.2136,2024-02-11 20:32:09.903,0.0
-0.7104,0.0637,-0.3813,1.4648,6.4926,0.351,2024-02-11 20:32:09.920,0.0
-0.7019,0.0515,-0.3879,2.4185,6.424,0.2136,2024-02-11 20:32:09.939,0.0
-0.7122,0.0505,-0.3945,1.1673,5.1422,0.7172,2024-02-11 20:32:09.957,0.0
-0.7268,0.0598,-0.3984,0.6943,6.218,1.1826,2024-02-11 20:32:09.976,0.0
-0.7256,0.0732,-0.4036,0.8621,6.6452,0.9003,2024-02-11 20:32:09.991,0.0
-0.7251,0.0654,-0.4009,1.5182,6.9733,0.2136,2024-02-11 20:32:10.011,0.0
-0.7344,0.0642,-0.4031,1.77,6.897,-0.206,2024-02-11 20:32:10.029,0.0
-0.7439,0.0657,-0.3953,-0.6104,5.9814,-0.412,2024-02-11 20:32:10.051,0.0
-0.7268,0.0747,-0.3706,-2.594,6.1798,-0.2365,2024-02-11 20:32:10.064,0.0
-0.7356,0.0923,-0.342,-3.1357,7.637,-0.9842,2024-02-11 20:32:10.085,0.0
-0.7319,0.0918,-0.354,-3.6011,7.637,-1.4191,2024-02-11 20:32:10.105,0.0
-0.7441,0.0776,-0.321,-2.5101,12.0544,-1.9073,2024-02-11 20:32:10.122,0.0
-0.7234,0.0637,-0.2869,-0.9995,21.1716,-1.9989,2024-02-11 20:32:10.136,0.0
-0.7043,0.053,-0.2405,-0.0458,24.8795,-1.7471,2024-02-11 20:32:10.157,0.0
-0.7039,0.0298,-0.2666,0.2136,31.0593,-0.1831,2024-02-11 20:32:10.175,0.0
-0.7288,0.022,-0.229,-2.3422,37.529,1.8768,2024-02-11 20:32:10.192,0.0
-0.6917,0.0139,-0.2539,-4.3182,45.0287,3.9749,2024-02-11 20:32:10.218,0.0
-0.7168,0.0291,-0.332,-7.5684,50.3082,7.431,2024-02-11 20:32:10.234,0.0
-0.7605,0.0466,-0.385,-11.7416,56.4651,10.9329,2024-02-11 20:32:10.246,0.0
-0.7385,0.0811,-0.3718,-14.0305,71.8689,13.4888,2024-02-11 20:32:10.262,1.0
-0.7034,0.0911,-0.387,-12.97,82.1991,15.1825,2024-02-11 20:32:10.281,1.0
-0.657,0.0693,-0.3928,-15.2359,86.8378,16.9601,2024-02-11 20:32:10.302,1.0
-0.616,0.0679,-0.4309,-20.7138,90.6754,18.28,2024-02-11 20:32:10.323,1.0
-0.6155,0.1108,-0.3135,-23.468,99.0906,21.0419,2024-02-11 20:32:10.338,1.0
-0.4963,0.1042,-0.219,-18.0206,112.1674,21.5759,2024-02-11 20:32:10.359,1.0
-0.4351,0.0632,-0.241,-10.7422,116.0507,21.6446,2024-02-11 20:32:10.372,1.0
-0.3542,-0.0063,-0.2483,-5.3787,122.0016,21.4233,2024-02-11 20:32:10.393,1.0
-0.2573,-0.0181,-0.1709,1.4801,133.6823,21.492,2024-02-11 20:32:10.416,1.0
-0.1812,-0.0132,-0.042,11.8256,146.4386,24.6353,2024-02-11 20:32:10.429,1.0
-0.1069,-0.0371,0.1011,28.862,157.1884,31.0822,2024-02-11 20:32:10.449,1.0
0.0225,-0.0767,0.1221,41.6794,160.347,34.6909,2024-02-11 20:32:10.463,1.0
0.1196,-0.0908,0.1165,47.6456,162.1323,32.0587,2024-02-11 20:32:10.483,1.0
0.2109,-0.0554,0.1157,46.6537,157.547,26.0239,2024-02-11 20:32:10.500,1.0
0.1724,-0.0461,0.05,37.9944,157.7148,18.3563,2024-02-11 20:32:10.523,1.0
0.0771,-0.0054,0.1707,31.3797,145.4849,13.5422,2024-02-11 20:32:10.535,1.0
0.1958,0.0,0.0889,22.6135,131.134,12.3749,2024-02-11 20:32:10.555,1.0
0.2217,0.0007,0.054,13.4964,113.5712,11.6577,2024-02-11 20:32:10.571,1.0
0.2214,-0.0037,0.0649,4.9515,98.4573,13.1683,2024-02-11 20:32:10.592,1.0
0.2322,-0.0007,0.0933,4.0359,89.1724,15.5487,2024-02-11 20:32:10.612,1.0
0.2112,-0.0034,0.0894,6.4163,86.9751,18.9438,2024-02-11 20:32:10.626,1.0
0.2314,-0.0173,0.0547,8.5907,87.8372,22.1405,2024-02-11 20:32:10.650,1.0
0.25,-0.0347,0.0144,9.2316,87.3947,21.9574,2024-02-11 20:32:10.662,1.0
0.2302,-0.042,-0.0222,7.0419,84.4879,19.3634,2024-02-11 20:32:10.682,1.0
0.1855,0.0024,-0.0005,5.9967,77.9724,15.2969,2024-02-11 20:32:10.702,1.0
0.1533,-0.0046,0.0273,8.1329,78.6133,15.152,2024-02-11 20:32:10.719,1.0
0.1501,0.0125,0.0139,11.4365,86.0901,14.7018,2024-02-11 20:32:10.736,1.0
0.1509,0.0298,-0.0107,14.9002,89.386,14.0915,2024-02-11 20:32:10.753,1.0
0.1548,-0.0254,-0.0508,12.886,94.2764,16.4642,2024-02-11 20:32:10.771,1.0
0.1831,-0.0352,-0.0447,8.7967,97.3587,13.6948,2024-02-11 20:32:10.788,1.0
0.156,-0.0432,-0.0393,12.001,85.5713,15.8005,2024-02-11 20:32:10.809,1.0
7.9998,2.4456,-8.0,-233.4595,249.9924,-46.3791,2024-02-11 20:32:10.825,1.0
0.7966,-2.1716,-6.3645,249.9924,-33.9813,94.1849,2024-02-11 20:32:10.848,1.0
0.561,-0.1511,-0.3679,94.574,183.8455,-33.4625,2024-02-11 20:32:10.865,1.0
0.9058,-0.3184,-0.7627,17.8375,20.6528,-106.7276,2024-02-11 20:32:10.881,1.0
0.6067,-0.2427,0.0024,14.389,-97.58,-61.5463,2024-02-11 20:32:10.900,1.0
0.5164,-0.1609,-0.2373,11.2305,-121.0556,-18.9285,2024-02-11 20:32:10.915,1.0
0.5588,-0.0117,-0.7178,-23.1323,-96.7484,3.9062,2024-02-11 20:32:10.949,1.0
0.4648,-0.0642,-1.0396,-48.027,-133.9264,21.5454,2024-02-11 20:32:10.973,1.0
0.238,-0.1338,-1.1814,-20.6146,-217.5751,16.6626,2024-02-11 20:32:10.974,1.0
-0.1479,-0.0864,-0.8047,-29.6097,-159.8969,17.3416,2024-02-11 20:32:10.994,1.0
-0.2124,-0.3228,-0.7927,-5.1727,-60.2646,19.3481,2024-02-11 20:32:11.008,1.0
-0.2275,-0.1443,-1.2175,-4.0817,26.0544,20.668,2024-02-11 20:32:11.041,1.0
0.0461,-0.1052,-0.8708,-3.5706,34.523,2.3804,2024-02-11 20:32:11.043,1.0
0.1726,-0.0891,-0.7578,5.3177,20.3857,-3.067,2024-02-11 20:32:11.057,1.0
0.2004,-0.1562,-1.0447,4.7836,7.6599,-1.4954,2024-02-11 20:32:11.077,1.0
0.1436,-0.1296,-1.1863,-14.122,15.2512,2.6474,2024-02-11 20:32:11.097,1.0
0.1121,-0.1077,-0.7551,-17.1585,-3.1967,-1.7853,2024-02-11 20:32:11.117,1.0
0.0383,-0.0386,-0.7842,-4.2725,-5.3787,0.7248,2024-02-11 20:32:11.133,1.0
0.0515,-0.0527,-0.8184,2.6855,-7.9727,-0.5493,2024-02-11 20:32:11.156,1.0
0.0381,-0.1265,-1.0266,1.5488,6.9046,-1.7853,2024-02-11 20:32:11.172,1.0
0.0593,-0.0952,-0.9277,-0.5569,4.7989,-0.7401,2024-02-11 20:32:11.188,0.0
0.1143,-0.1096,-0.9116,-1.709,1.2283,-1.1292,2024-02-11 20:32:11.208,0.0
0.1008,-0.0806,-0.866,0.0381,2.9297,-1.1978,2024-02-11 20:32:11.220,0.0
0.0977,-0.1045,-0.9045,2.7924,4.1122,-1.4114,2024-02-11 20:32:11.241,0.0
0.1072,-0.1189,-0.9404,-0.3815,2.4414,-1.5945,2024-02-11 20:32:11.265,0.0
0.1025,-0.1016,-0.9019,-2.1973,0.2594,-1.1673,2024-02-11 20:32:11.281,0.0
0.0918,-0.1042,-0.907,-1.9531,-1.2283,-1.2741,2024-02-11 20:32:11.297,0.0
0.0874,-0.1052,-0.9146,-1.7929,1.1749,-1.1368,2024-02-11 20:32:11.314,0.0
0.0972,-0.1018,-0.9133,-2.5406,1.9226,-1.2207,2024-02-11 20:32:11.337,0.0
0.0923,-0.0967,-0.907,-2.0905,1.3275,-1.2054,2024-02-11 20:32:11.349,0.0
0.0969,-0.0945,-0.9119,-0.9384,1.8616,-1.4114,2024-02-11 20:32:11.369,0.0
0.0933,-0.0994,-0.9104,-0.7935,1.8234,-1.1826,2024-02-11 20:32:11.384,0.0
0.0947,-0.1028,-0.9182,-0.9918,1.8234,-1.2131,2024-02-11 20:32:11.406,0.0
0.0964,-0.1069,-0.9094,-1.0529,1.6632,-1.3046,2024-02-11 20:32:11.425,0.0
0.095,-0.1016,-0.9182,-1.3275,1.4343,-1.2665,2024-02-11 20:32:11.436,0.0
0.0957,-0.1013,-0.9094,-1.5106,1.4648,-1.2207,2024-02-11 20:32:11.458,0.0
0.095,-0.1003,-0.9207,-1.5106,1.77,-1.3504,2024-02-11 20:32:11.476,0.0
0.0913,-0.1089,-0.9055,-1.2283,1.7166,-1.1749,2024-02-11 20:32:11.495,0.0
0.095,-0.1011,-0.9158,-1.3733,1.5259,-1.3962,2024-02-11 20:32:11.511,0.0
0.1013,-0.1069,-0.9243,-1.4038,1.5945,-1.4038,2024-02-11 20:32:11.536,0.0
0.0962,-0.1055,-0.9143,-1.2512,1.7242,-1.236,2024-02-11 20:32:11.549,0.0
0.0906,-0.0994,-0.9094,-1.0147,1.5488,-1.1597,2024-02-11 20:32:11.565,0.0
0.0989,-0.1042,-0.9067,-1.2894,1.77,-1.3123,2024-02-11 20:32:11.584,0.0
0.0977,-0.0964,-0.905,-1.3962,1.4572,-1.3657,2024-02-11 20:32:11.606,0.0
0.1001,-0.0994,-0.9197,-1.1673,1.6861,-1.4343,2024-02-11 20:32:11.624,0.0
0.1006,-0.103,-0.9165,-1.5335,1.5106,-1.3046,2024-02-11 20:32:11.645,0.0
0.0913,-0.0996,-0.9067,-1.2207,1.7319,-1.2817,2024-02-11 20:32:11.658,0.0
0.094,-0.1033,-0.9194,-1.4191,1.6632,-1.2512,2024-02-11 20:32:11.682,0.0
0.0945,-0.0989,-0.906,-1.0834,1.8921,-1.3046,2024-02-11 20:32:11.695,0.0
0.0972,-0.1038,-0.905,-1.1826,1.7624,-1.2512,2024-02-11 20:32:11.720,0.0
0.0959,-0.1013,-0.9136,-1.2665,1.6708,-1.3351,2024-02-11 20:32:11.731,0.0
0.0986,-0.1086,-0.9121,-1.2665,1.7471,-1.4114,2024-02-11 20:32:11.754,0.0
0.0903,-0.1018,-0.9163,-1.3428,1.6632,-1.3123,2024-02-11 20:32:11.767,0.0
0.1028,-0.1042,-0.9099,-1.3428,1.5793,-1.4496,2024-02-11 20:32:11.786,0.0
0.0923,-0.1064,-0.9133,-1.3657,1.5182,-1.1368,2024-02-11 20:32:11.805,0.0
0.1023,-0.1042,-0.9153,-1.2817,1.5259,-1.3504,2024-02-11 20:32:11.821,0.0
0.1013,-0.1033,-0.9172,-1.2894,1.77,-1.3962,2024-02-11 20:32:11.841,0.0
0.095,-0.105,-0.9126,-1.2054,1.6632,-1.4648,2024-02-11 20:32:11.858,0.0
0.0881,-0.1001,-0.9221,-1.1902,1.3885,-1.1215,2024-02-11 20:32:11.874,0.0
0.0955,-0.1008,-0.9141,-1.503,1.5335,-1.3733,2024-02-11 20:32:11.921,0.0
0.0935,-0.1035,-0.9109,-1.2283,1.709,-1.3123,2024-02-11 20:32:11.922,0.0
0.103,-0.1028,-0.9172,-1.4343,1.6632,-1.152,2024-02-11 20:32:11.927,0.0
0.0984,-0.1003,-0.907,-1.1368,1.7014,-1.1673,2024-02-11 20:32:11.952,0.0
0.0981,-0.1013,-0.9133,-1.297,1.6937,-1.4801,2024-02-11 20:32:11.965,0.0
0.0891,-0.0989,-0.9048,-0.9613,1.6937,-1.4725,2024-02-11 20:32:11.981,0.0
0.0994,-0.1025,-0.9092,-1.4572,1.7776,-1.3428,2024-02-11 20:32:12.003,0.0
0.1003,-0.1003,-0.9177,-1.4801,1.7929,-1.2817,2024-02-11 20:32:12.018,0.0
0.0925,-0.1003,-0.9106,-1.4191,1.5869,-1.358,2024-02-11 20:32:12.039,0.0
0.0937,-0.0979,-0.9087,-1.297,1.4801,-1.3962,2024-02-11 20:32:12.052,0.0
0.1006,-0.1011,-0.9111,-1.3657,1.9531,-1.236,2024-02-11 20:32:12.076,0.0
0.0923,-0.0979,-0.9124,-1.3123,1.7853,-1.1978,2024-02-11 20:32:12.089,0.0
0.104,-0.0989,-0.9143,-1.2817,1.8158,-1.2436,2024-02-11 20:32:12.107,0.0
0.1013,-0.103,-0.9136,-1.3428,1.6632,-1.236,2024-02-11 20:32:12.127,0.0
0.0996,-0.1072,-0.9124,-1.4191,1.8845,-1.358,2024-02-11 20:32:12.142,0.0
0.0996,-0.1011,-0.916,-1.2283,1.8005,-1.4114,2024-02-11 20:32:12.161,0.0
0.1008,-0.1084,-0.9128,-1.152,1.8845,-1.358,2024-02-11 20:32:12.179,0.0
0.0925,-0.1035,-0.9172,-1.3123,1.709,-1.3351,2024-02-11 20:32:12.198,0.0
0.1025,-0.1028,-0.9141,-1.503,1.6327,-1.2436,2024-02-11 20:32:12.214,0.0
0.1047,-0.0972,-0.9138,-1.3275,1.709,-1.2436,2024-02-11 20:32:12.235,0.0
0.0979,-0.1045,-0.9097,-1.358,1.7929,-1.2054,2024-02-11 20:32:12.251,0.0
0.0967,-0.1001,-0.9138,-1.4801,1.915,-1.1902,2024-02-11 20:32:12.273,0.0
0.0801,-0.0908,-0.917,-1.5793,0.9766,-1.0223,2024-02-11 20:32:12.287,0.0
0.0974,-0.0977,-0.9189,-1.4801,1.8005,-1.3809,2024-02-11 20:32:12.319,0.0
0.1013,-0.1025,-0.9177,-1.3733,1.7929,-1.2665,2024-02-11 20:32:12.323,0.0
0.0986,-0.1035,-0.9199,-1.4648,1.8921,-1.4114,2024-02-11 20:32:12.340,0.0
0.0981,-0.0989,-0.9033,-1.4343,1.7319,-1.3733,2024-02-11 20:32:12.363,0.0
0.0996,-0.0967,-0.9163,-1.3962,1.6632,-1.358,2024-02-11 20:32:12.379,0.0
0.0967,-0.1021,-0.9114,-1.3275,1.6479,-1.4267,2024-02-11 20:32:12.394,0.0
0.0974,-0.1038,-0.9131,-1.442,1.5411,-1.3504,2024-02-11 20:32:12.417,0.0
0.1006,-0.1021,-0.9106,-1.2283,1.6251,-1.3199,2024-02-11 20:32:12.435,0.0
0.0979,-0.1003,-0.9087,-1.2283,1.7166,-1.2512,2024-02-11 20:32:12.452,0.0
0.1069,-0.105,-0.9092,-1.3733,1.8158,-1.4496,2024-02-11 20:32:12.487,0.0
0.1018,-0.1042,-0.9092,-1.503,1.4725,-1.3733,2024-02-11 20:32:12.488,0.0
0.0937,-0.1018,-0.9155,-1.152,1.5488,-1.4191,2024-02-11 20:32:12.508,0.0
0.0991,-0.0967,-0.9158,-1.4725,1.7548,-1.3885,2024-02-11 20:32:12.523,0.0
0.0969,-0.1035,-0.9216,-1.5259,1.8387,-1.3275,2024-02-11 20:32:12.544,0.0
0.1013,-0.0981,-0.9094,-1.3046,1.7014,-1.2894,2024-02-11 20:32:12.562,0.0
0.094,-0.1021,-0.9163,-1.3275,1.6785,-1.442,2024-02-11 20:32:12.579,0.0
0.1028,-0.106,-0.9114,-1.3809,1.7929,-1.4191,2024-02-11 20:32:12.596,0.0
0.0984,-0.1003,-0.916,-1.358,1.6174,-1.3428,2024-02-11 20:32:12.619,0.0
0.0979,-0.1016,-0.9045,-1.2436,1.4877,-1.3657,2024-02-11 20:32:12.633,0.0
0.1045,-0.1008,-0.9146,-1.3504,1.7395,-1.3504,2024-02-11 20:32:12.656,0.0
0.0996,-0.0959,-0.9126,-1.4038,1.6708,-1.3504,2024-02-11 20:32:12.679,0.0
0.1011,-0.103,-0.9204,-1.2054,1.7242,-1.3504,2024-02-11 20:32:12.688,0.0
0.1008,-0.1001,-0.9033,-1.3275,1.6098,-1.4114,2024-02-11 20:32:12.706,0.0
0.1008,-0.1038,-0.9094,-1.2741,1.6022,-1.2894,2024-02-11 20:32:12.726,0.0
0.1042,-0.0996,-0.9231,-1.236,1.8311,-1.2894,2024-02-11 20:32:12.744,0.0
0.0967,-0.0999,-0.9204,-1.3046,1.6403,-1.4191,2024-02-11 20:32:12.771,0.0
0.1008,-0.0977,-0.9141,-1.297,1.5793,-1.4648,2024-02-11 20:32:12.781,0.0
0.0991,-0.1011,-0.9131,-1.3962,1.7548,-1.2894,2024-02-11 20:32:12.803,0.0
0.1069,-0.0981,-0.9126,-1.3123,1.7014,-1.3123,2024-02-11 20:32:12.816,0.0
0.0999,-0.1023,-0.9133,-1.2741,1.77,-1.4038,2024-02-11 20:32:12.834,0.0
0.1038,-0.0994,-0.9133,-1.4114,1.7471,-1.3809,2024-02-11 20:32:12.858,0.0
0.0979,-0.104,-0.9207,-1.2436,1.6479,-1.3275,2024-02-11 20:32:12.885,0.0
0.1045,-0.1006,-0.9148,-1.4267,1.4267,-1.3123,2024-02-11 20:32:12.890,0.0
0.1021,-0.1016,-0.9119,-1.1978,1.7014,-1.442,2024-02-11 20:32:12.925,0.0
0.105,-0.0989,-0.9094,-1.1826,1.6937,-1.2589,2024-02-11 20:32:12.926,0.0
0.1035,-0.1035,-0.9143,-1.1749,1.6327,-1.4572,2024-02-11 20:32:12.942,0.0
0.1035,-0.0974,-0.9158,-1.1826,1.5259,-1.2741,2024-02-11 20:32:12.960,0.0
0.1006,-0.1018,-0.9128,-1.2207,1.5945,-1.3428,2024-02-11 20:32:12.982,0.0
0.0984,-0.1057,-0.907,-1.1139,1.6937,-1.4572,2024-02-11 20:32:12.998,0.0
0.1018,-0.1001,-0.9143,-1.2283,1.5182,-1.3351,2024-02-11 20:32:13.015,0.0
0.1008,-0.1016,-0.9084,-1.3351,1.5564,-1.4648,2024-02-11 20:32:13.031,0.0
0.0989,-0.0994,-0.9146,-1.3123,1.6327,-1.3885,2024-02-11 20:32:13.050,0.0
0.1011,-0.105,-0.9128,-1.2589,1.6251,-1.2054,2024-02-11 20:32:13.067,0.0
0.103,-0.0957,-0.916,-1.2589,1.6556,-1.3504,2024-02-11 20:32:13.114,0.0
0.0964,-0.1033,-0.9131,-1.5488,1.5106,-1.3809,2024-02-11 20:32:13.115,0.0
0.0928,-0.0979,-0.9155,-1.297,1.6327,-1.1826,2024-02-11 20:32:13.122,0.0
0.103,-0.0984,-0.917,-1.358,1.5259,-1.3428,2024-02-11 20:32:13.137,0.0
0.0999,-0.1028,-0.9092,-1.2817,1.564,-1.4801,2024-02-11 20:32:13.162,0.0
0.1074,-0.1018,-0.9119,-1.4572,1.6174,-1.3809,2024-02-11 20:32:13.181,0.0
0.0969,-0.1011,-0.9167,-1.3809,1.4648,-1.3275,2024-02-11 20:32:13.192,0.0
0.1035,-0.1038,-0.9114,-1.4114,1.5717,-1.2665,2024-02-11 20:32:13.221,0.0
0.0991,-0.1011,-0.9087,-1.1215,1.4954,-1.2589,2024-02-11 20:32:13.227,0.0
0.0986,-0.0989,-0.9104,-1.3809,1.5564,-1.2665,2024-02-11 20:32:13.243,0.0
0.0989,-0.0972,-0.9119,-1.2741,1.5717,-1.442,2024-02-11 20:32:13.266,0.0
0.1016,-0.1072,-0.9158,-1.0757,1.6785,-1.4725,2024-02-11 20:32:13.283,0.0
0.1035,-0.0955,-0.9077,-1.4038,1.4496,-1.4725,2024-02-11 20:32:13.300,0.0
0.1025,-0.0977,-0.9063,-1.2054,1.5869,-1.1673,2024-02-11 20:32:13.318,0.0
0.1038,-0.0959,-0.9136,-1.2131,1.6785,-1.2817,2024-02-11 20:32:13.368,0.0
0.1011,-0.1047,-0.9177,-1.4877,1.564,-1.5182,2024-02-11 20:32:13.369,0.0
0.104,-0.1018,-0.9114,-1.5335,1.7242,-1.5335,2024-02-11 20:32:13.371,0.0
0.1035,-0.1025,-0.9109,-1.2436,1.7014,-1.4954,2024-02-11 20:32:13.422,0.0
0.1047,-0.0959,-0.9109,-1.1978,1.358,-1.3504,2024-02-11 20:32:13.423,0.0
0.105,-0.0991,-0.915,-1.442,1.6022,-1.1902,2024-02-11 20:32:13.424,0.0
0.0977,-0.0972,-0.9209,-1.2817,1.4801,-1.3351,2024-02-11 20:32:13.439,0.0
0.1084,-0.0959,-0.9165,-1.3199,1.5793,-1.236,2024-02-11 20:32:13.456,0.0
0.0996,-0.1016,-0.9172,-1.2741,1.5717,-1.3275,2024-02-11 20:32:13.475,0.0
0.1042,-0.0989,-0.9023,-1.2589,1.442,-1.442,2024-02-11 20:32:13.494,0.0
0.104,-0.1033,-0.9133,-1.4343,1.4877,-1.358,2024-02-11 20:32:13.515,0.0
0.1023,-0.1025,-0.9133,-1.3351,1.4114,-1.3733,2024-02-11 20:32:13.530,0.0
0.1042,-0.0989,-0.9084,-1.442,1.4648,-1.3351,2024-02-11 20:32:13.549,0.0
0.1033,-0.0964,-0.9214,-1.4496,1.5411,-1.358,2024-02-11 20:32:13.565,0.0
0.104,-0.0972,-0.9238,-1.152,1.4191,-1.4801,2024-02-11 20:32:13.600,0.0
0.103,-0.0974,-0.9231,-1.2589,1.5793,-1.2589,2024-02-11 20:32:13.601,0.0
0.1033,-0.0972,-0.9094,-1.6098,1.5488,-1.3275,2024-02-11 20:32:13.619,0.0
0.0972,-0.0957,-0.9133,-1.4191,1.6327,-1.2054,2024-02-11 20:32:13.637,0.0
0.1003,-0.092,-0.9092,-1.3123,1.5106,-1.4725,2024-02-11 20:32:13.658,0.0
0.1035,-0.0994,-0.9089,-1.3275,1.442,-1.3809,2024-02-11 20:32:13.676,0.0
0.1025,-0.1003,-0.9172,-1.1902,1.3504,-1.2054,2024-02-11 20:32:13.729,0.0
0.0991,-0.1006,-0.9072,-1.3885,1.5717,-1.442,2024-02-11 20:32:13.730,0.0
0.1018,-0.0979,-0.9097,-1.2131,1.7014,-1.3123,2024-02-11 20:32:13.731,0.0
0.1035,-0.1003,-0.9133,-1.3809,1.3885,-1.3657,2024-02-11 20:32:13.741,0.0
0.1082,-0.0984,-0.9143,-1.2054,1.3504,-1.4725,2024-02-11 20:32:13.762,0.0
0.1025,-0.0996,-0.9148,-1.2131,1.4572,-1.3123,2024-02-11 20:32:13.777,0.0
0.1025,-0.104,-0.9089,-1.3809,1.5793,-1.3199,2024-02-11 20:32:13.800,0.0
0.1064,-0.1033,-0.9126,-1.2054,1.6251,-1.3123,2024-02-11 20:32:13.819,0.0
0.1064,-0.1006,-0.9226,-1.4267,1.4191,-1.4572,2024-02-11 20:32:13.832,0.0
0.1055,-0.0989,-0.9146,-1.3046,1.6479,-1.3657,2024-02-11 20:32:13.852,0.0
0.1025,-0.1016,-0.917,-1.3428,1.5564,-1.2894,2024-02-11 20:32:13.867,0.0
0.1062,-0.0996,-0.9124,-1.3275,1.6556,-1.358,2024-02-11 20:32:13.888,0.0
0.1052,-0.0991,-0.9028,-1.0529,1.7014,-1.3657,2024-02-11 20:32:13.903,0.0
0.0986,-0.1001,-0.9063,-1.3351,1.6251,-1.2741,2024-02-11 20:32:13.923,0.0
0.1038,-0.0962,-0.9119,-1.4343,1.5564,-1.2589,2024-02-11 20:32:13.955,0.0
0.1018,-0.0962,-0.9104,-1.3962,1.4725,-1.3046,2024-02-11 20:32:13.961,0.0
0.1042,-0.1008,-0.9148,-1.4038,1.6251,-1.3046,2024-02-11 20:32:13.976,0.0
0.1008,-0.1035,-0.9116,-1.1368,1.5411,-1.4801,2024-02-11 20:32:14.043,0.0
0.1045,-0.1045,-0.9121,-1.3504,1.564,-1.4648,2024-02-11 20:32:14.044,0.0
0.1047,-0.1018,-0.9087,-1.1444,1.4725,-1.2817,2024-02-11 20:32:14.045,0.0
0.1001,-0.0991,-0.9128,-1.2207,1.5106,-1.3123,2024-02-11 20:32:14.050,0.0
0.1033,-0.0989,-0.896,-1.3351,1.4725,-1.358,2024-02-11 20:32:14.066,0.0
0.1062,-0.1008,-0.9153,-1.5259,1.4191,-1.442,2024-02-11 20:32:14.087,0.0
0.1042,-0.0959,-0.9087,-1.3123,1.564,-1.3962,2024-02-11 20:32:14.106,0.0
0.1052,-0.0977,-0.9143,-1.2131,1.442,-1.4648,2024-02-11 20:32:14.122,0.0
0.1045,-0.0991,-0.9058,-1.2512,1.6708,-1.3275,2024-02-11 20:32:14.140,0.0
0.1045,-0.1013,-0.905,-1.2512,1.5259,-1.3504,2024-02-11 20:32:14.158,0.0
0.1033,-0.1038,-0.9141,-1.1597,1.4496,-1.503,2024-02-11 20:32:14.175,0.0
0.0984,-0.103,-0.9138,-1.2589,1.3123,-1.3199,2024-02-11 20:32:14.196,0.0
0.1064,-0.0999,-0.9058,-1.3962,1.5717,-1.3275,2024-02-11 20:32:14.213,0.0
0.1033,-0.0962,-0.9102,-1.1902,1.6098,-1.297,2024-02-11 20:32:14.248,0.0
0.105,-0.0977,-0.9104,-1.358,1.6556,-1.2817,2024-02-11 20:32:14.249,0.0
0.1016,-0.1008,-0.918,-1.358,1.6174,-1.3123,2024-02-11 20:32:14.267,0.0
0.1045,-0.1035,-0.916,-1.1978,1.5411,-1.3809,2024-02-11 20:32:14.287,0.0
0.1116,-0.1013,-0.9072,-1.3885,1.4801,-1.3428,2024-02-11 20:32:14.306,0.0
0.105,-0.0999,-0.9133,-1.3428,1.4572,-1.2817,2024-02-11 20:32:14.324,0.0
0.1077,-0.1001,-0.9092,-1.4725,1.4648,-1.3809,2024-02-11 20:32:14.341,0.0
0.1018,-0.1003,-0.9036,-1.3657,1.5182,-1.4191,2024-02-11 20:32:14.359,0.0
0.1052,-0.1069,-0.9119,-1.0452,1.4343,-1.3351,2024-02-11 20:32:14.380,0.0
0.1067,-0.1018,-0.9197,-1.3657,1.5411,-1.3504,2024-02-11 20:32:14.393,0.0
0.1038,-0.0911,-0.9033,-1.2512,1.5259,-1.2894,2024-02-11 20:32:14.415,0.0
0.1099,-0.0969,-0.906,-1.297,1.564,-1.4877,2024-02-11 20:32:14.435,0.0
0.0974,-0.0957,-0.9077,-1.1749,1.5488,-1.2589,2024-02-11 20:32:14.452,0.0
0.1035,-0.103,-0.9109,-1.2207,1.5488,-1.4725,2024-02-11 20:32:14.472,0.0
0.1013,-0.0989,-0.9114,-1.4343,1.3504,-1.4038,2024-02-11 20:32:14.486,0.0
0.106,-0.103,-0.9146,-1.0986,1.5259,-1.3351,2024-02-11 20:32:14.512,0.0
0.1045,-0.0972,-0.908,-1.2894,1.6479,-1.3199,2024-02-11 20:32:14.521,0.0
0.0994,-0.0947,-0.9146,-1.358,1.4343,-1.2512,2024-02-11 20:32:14.543,0.0
0.1104,-0.1001,-0.9128,-1.1368,1.4191,-1.3962,2024-02-11 20:32:14.561,0.0
0.1072,-0.0935,-0.9165,-1.297,1.7319,-1.3504,2024-02-11 20:32:14.579,0.0
0.1038,-0.1023,-0.9087,-1.4267,1.5869,-1.3962,2024-02-11 20:32:14.597,0.0
0.1113,-0.0979,-0.9065,-1.297,1.4572,-1.2741,2024-02-11 20:32:14.615,0.0
0.1028,-0.095,-0.9126,-1.3657,1.5182,-1.4114,2024-02-11 20:32:14.636,0.0
0.1038,-0.0967,-0.9163,-1.2054,1.3504,-1.3733,2024-02-11 20:32:14.650,0.0
0.1035,-0.0989,-0.9082,-1.503,1.5717,-1.3199,2024-02-11 20:32:14.668,0.0
0.1047,-0.1016,-0.918,-1.236,1.5793,-1.5106,2024-02-11 20:32:14.693,0.0
0.1062,-0.0937,-0.9131,-1.1368,1.6861,-1.236,2024-02-11 20:32:14.702,0.0
0.1025,-0.0986,-0.9092,-1.358,1.4648,-1.442,2024-02-11 20:32:14.731,0.0
0.1067,-0.1003,-0.9111,-1.3504,1.6022,-1.358,2024-02-11 20:32:14.743,0.0
0.1008,-0.0996,-0.9167,-1.3962,1.6327,-1.2817,2024-02-11 20:32:14.763,0.0
0.1089,-0.103,-0.9221,-1.297,1.5793,-1.3504,2024-02-11 20:32:14.780,0.0
0.1045,-0.0986,-0.9141,-1.4343,1.3123,-1.2512,2024-02-11 20:32:14.800,0.0
0.1062,-0.1001,-0.9143,-1.3046,1.442,-1.4267,2024-02-11 20:32:14.819,0.0
0.1091,-0.1003,-0.9104,-1.3046,1.5259,-1.3275,2024-02-11 20:32:14.836,0.0
0.1074,-0.1023,-0.9094,-1.1749,1.4114,-1.3428,2024-02-11 20:32:14.853,0.0
0.1025,-0.0981,-0.9141,-1.2817,1.6098,-1.2283,2024-02-11 20:32:14.873,0.0
0.0981,-0.0994,-0.9119,-1.1673,1.6708,-1.4038,2024-02-11 20:32:14.889,0.0
0.1028,-0.0981,-0.9065,-0.885,1.5945,-1.3809,2024-02-11 20:32:14.908,0.0
0.106,-0.0994,-0.9084,-1.5411,1.6174,-1.2589,2024-02-11 20:32:14.925,0.0
0.1035,-0.0989,-0.9136,-1.2894,1.6098,-1.5717,2024-02-11 20:32:14.946,0.0
0.1077,-0.0991,-0.9189,-1.3428,1.7776,-1.4267,2024-02-11 20:32:14.958,0.0
0.1035,-0.1021,-0.9163,-1.564,1.3657,-1.4343,2024-02-11 20:32:14.976,0.0
0.1089,-0.0999,-0.9119,-1.2436,1.5793,-1.2589,2024-02-11 20:32:14.996,0.0
0.1125,-0.0977,-0.9033,-1.358,1.564,-1.2512,2024-02-11 20:32:15.016,0.0
0.1035,-0.1035,-0.8994,-1.2512,1.4114,-1.4648,2024-02-11 20:32:15.031,0.0
0.1104,-0.1021,-0.9058,-1.3275,1.6556,-1.4191,2024-02-11 20:32:15.049,0.0
0.1035,-0.105,-0.9087,-1.1978,1.4572,-1.2512,2024-02-11 20:32:15.067,0.0
0.106,-0.0974,-0.9138,-1.3504,1.3199,-1.3504,2024-02-11 20:32:15.086,0.0
0.1072,-0.1008,-0.9072,-1.297,1.5717,-1.3733,2024-02-11 20:32:15.105,0.0
0.1072,-0.1023,-0.9097,-1.3199,1.5335,-1.4114,2024-02-11 20:32:15.125,0.0
0.104,-0.1018,-0.9119,-1.1368,1.2207,-1.1749,2024-02-11 20:32:15.143,0.0
0.1011,-0.0986,-0.9226,-1.3504,1.6174,-1.4114,2024-02-11 20:32:15.157,0.0
0.1055,-0.1008,-0.9185,-1.2283,1.4496,-1.2512,2024-02-11 20:32:15.184,0.0
0.1062,-0.0979,-0.9133,-1.3885,1.4267,-1.4191,2024-02-11 20:32:15.195,0.0
0.1006,-0.0986,-0.9084,-1.3351,1.4267,-1.3123,2024-02-11 20:32:15.210,0.0
0.1062,-0.1018,-0.9099,-1.1978,1.503,-1.2894,2024-02-11 20:32:15.229,0.0
0.1082,-0.1062,-0.918,-1.4725,1.6632,-1.5259,2024-02-11 20:32:15.253,0.0
0.1074,-0.0977,-0.9192,-1.4038,1.3657,-1.5488,2024-02-11 20:32:15.268,0.0
0.1013,-0.0989,-0.9043,-1.4343,1.4038,-1.4038,2024-02-11 20:32:15.282,0.0
0.106,-0.0989,-0.9167,-1.3504,1.5259,-1.3657,2024-02-11 20:32:15.302,0.0
0.1025,-0.0996,-0.9089,-1.3123,1.4725,-1.3809,2024-02-11 20:32:15.322,0.0
0.1099,-0.0977,-0.9097,-1.2283,1.4801,-1.3123,2024-02-11 20:32:15.337,0.0
0.1104,-0.0986,-0.9136,-1.2589,1.4801,-1.3733,2024-02-11 20:32:15.358,0.0
0.1079,-0.0969,-0.9126,-1.2589,1.4572,-1.2512,2024-02-11 20:32:15.380,0.0
0.1045,-0.1001,-0.9075,-1.3809,1.4343,-1.3046,2024-02-11 20:32:15.395,0.0
0.1079,-0.0977,-0.9219,-1.3351,1.5945,-1.358,2024-02-11 20:32:15.415,0.0
0.105,-0.1008,-0.9248,-1.3885,1.5793,-1.3962,2024-02-11 20:32:15.435,0.0
0.1062,-0.0972,-0.9114,-1.3733,1.4343,-1.5106,2024-02-11 20:32:15.450,0.0
0.106,-0.1023,-0.9099,-1.3962,1.709,-1.236,2024-02-11 20:32:15.468,0.0
0.0981,-0.1008,-0.9221,-1.2283,1.3275,-1.1749,2024-02-11 20:32:15.486,0.0
0.1038,-0.1001,-0.9111,-1.4038,1.4801,-1.2817,2024-02-11 20:32:15.503,0.0
0.104,-0.0989,-0.908,-1.3809,1.4725,-1.0605,2024-02-11 20:32:15.522,0.0
0.1091,-0.1035,-0.9128,-1.2436,1.2817,-1.4038,2024-02-11 20:32:15.541,0.0
0.1074,-0.1001,-0.9092,-1.3733,1.6022,-1.3046,2024-02-11 20:32:15.557,0.0
0.0999,-0.0986,-0.9141,-1.3275,1.5259,-1.2512,2024-02-11 20:32:15.575,0.0
0.104,-0.1035,-0.9146,-1.1826,1.5259,-1.3428,2024-02-11 20:32:15.593,0.0
0.1084,-0.0989,-0.9165,-1.3275,1.564,-1.297,2024-02-11 20:32:15.610,0.0
0.1108,-0.0986,-0.9087,-1.2665,1.4648,-1.3123,2024-02-11 20:32:15.631,0.0
0.1091,-0.1001,-0.9146,-1.0452,1.5411,-1.2436,2024-02-11 20:32:15.648,0.0
0.103,-0.0974,-0.9138,-1.2817,1.3962,-1.2894,2024-02-11 20:32:15.664,0.0
0.1035,-0.0959,-0.9172,-1.1902,1.2512,-1.2817,2024-02-11 20:32:15.685,0.0
0.105,-0.1016,-0.9067,-1.3428,1.5335,-1.3275,2024-02-11 20:32:15.698,0.0
0.1108,-0.0986,-0.9126,-1.1902,1.4191,-1.4191,2024-02-11 20:32:15.719,0.0
0.1074,-0.1025,-0.9133,-1.3351,1.6327,-1.4038,2024-02-11 20:32:15.740,0.0
0.1028,-0.0986,-0.9133,-1.4496,1.4725,-1.564,2024-02-11 20:32:15.754,0.0
0.1064,-0.0996,-0.9192,-1.2817,1.4877,-1.6174,2024-02-11 20:32:15.774,0.0
0.1062,-0.103,-0.9092,-1.2894,1.503,-1.4801,2024-02-11 20:32:15.795,0.0
0.1082,-0.1018,-0.9131,-1.2894,1.5564,-1.236,2024-02-11 20:32:15.807,0.0
0.1055,-0.0962,-0.9058,-1.2665,1.5335,-1.3657,2024-02-11 20:32:15.830,0.0
0.1042,-0.0955,-0.9067,-1.5335,1.5106,-1.5564,2024-02-11 20:32:15.843,0.0
0.103,-0.1018,-0.9119,-1.3351,1.4648,-1.4343,2024-02-11 20:32:15.864,0.0
0.1067,-0.1003,-0.9111,-1.3199,1.6403,-1.4114,2024-02-11 20:32:15.881,0.0
0.1062,-0.0991,-0.9126,-1.3123,1.5182,-1.3123,2024-02-11 20:32:15.899,0.0
0.1086,-0.1006,-0.9172,-1.2436,1.2131,-1.4648,2024-02-11 20:32:15.917,0.0
0.1099,-0.1001,-0.9119,-1.3351,1.3962,-1.0986,2024-02-11 20:32:15.932,0.0
0.1074,-0.1003,-0.918,-1.0223,1.5259,-1.2817,2024-02-11 20:32:15.950,0.0
0.1079,-0.0981,-0.9187,-1.1292,1.5182,-1.4343,2024-02-11 20:32:15.969,0.0
0.1052,-0.0918,-0.9011,-1.2207,1.6022,-1.2894,2024-02-11 20:32:15.986,0.0
0.1089,-0.0996,-0.9065,-1.3351,1.4954,-1.2665,2024-02-11 20:32:16.008,0.0
0.1096,-0.0996,-0.9138,-1.1139,1.3962,-1.3809,2024-02-11 20:32:16.027,0.0
0.104,-0.1006,-0.9167,-1.2054,1.3351,-1.3657,2024-02-11 20:32:16.049,0.0
0.1089,-0.0969,-0.9099,-1.2436,1.4343,-1.4725,2024-02-11 20:32:16.064,0.0
0.1079,-0.0999,-0.9138,-1.2665,1.5869,-1.4114,2024-02-11 20:32:16.080,0.0
0.0994,-0.0999,-0.9045,-1.3733,1.3657,-1.442,2024-02-11 20:32:16.095,0.0
0.1033,-0.0994,-0.9097,-1.4954,1.503,-1.2054,2024-02-11 20:32:16.114,0.0
0.1089,-0.0984,-0.9146,-1.1749,1.6022,-1.4954,2024-02-11 20:32:16.137,0.0
0.1062,-0.0999,-0.9192,-1.2665,1.2741,-1.297,2024-02-11 20:32:16.172,0.0
0.1089,-0.1018,-0.9011,-1.4267,1.503,-1.3657,2024-02-11 20:32:16.173,0.0
0.1074,-0.1035,-0.9094,-1.1826,1.5335,-1.4877,2024-02-11 20:32:16.186,0.0
0.1057,-0.1001,-0.9143,-1.3275,1.5411,-1.4496,2024-02-11 20:32:16.218,0.0
0.1062,-0.1021,-0.8923,-1.3351,1.5106,-1.3504,2024-02-11 20:32:16.224,0.0
0.1008,-0.1028,-0.9211,-1.3351,1.3504,-1.3733,2024-02-11 20:32:16.259,0.0
0.1025,-0.1025,-0.9119,-1.4343,1.564,-1.4954,2024-02-11 20:32:16.260,0.0
0.1008,-0.1003,-0.9121,-1.3351,1.4114,-1.2741,2024-02-11 20:32:16.283,0.0
0.1079,-0.0981,-0.8994,-1.3199,1.5335,-1.2817,2024-02-11 20:32:16.303,0.0
0.1008,-0.1042,-0.9204,-1.4114,1.4267,-1.4191,2024-02-11 20:32:16.321,0.0
0.1106,-0.1047,-0.9143,-1.2436,1.2817,-1.4648,2024-02-11 20:32:16.341,0.0
0.1099,-0.1001,-0.9153,-1.2894,1.3123,-1.3199,2024-02-11 20:32:16.359,0.0
0.0967,-0.1067,-0.9128,-1.2894,1.4191,-1.358,2024-02-11 20:32:16.382,0.0
0.1057,-0.106,-0.9058,-1.4267,1.6022,-1.2054,2024-02-11 20:32:16.394,0.0
0.1052,-0.0964,-0.9109,-1.2589,1.5793,-1.2512,2024-02-11 20:32:16.409,0.0
0.1033,-0.0996,-0.9067,-1.2894,1.3733,-1.4267,2024-02-11 20:32:16.426,0.0
0.1057,-0.0967,-0.9138,-1.1368,1.4114,-1.2589,2024-02-11 20:32:16.444,0.0
0.1096,-0.1006,-0.9138,-1.4191,1.2054,-1.358,2024-02-11 20:32:16.467,0.0
0.1052,-0.1006,-0.9158,-1.503,1.5106,-1.3199,2024-02-11 20:32:16.481,0.0
0.1079,-0.0989,-0.927,-1.4496,1.3809,-1.3275,2024-02-11 20:32:16.498,0.0
0.0984,-0.1038,-0.9155,-1.3123,1.4191,-1.4572,2024-02-11 20:32:16.516,0.0
0.1033,-0.0994,-0.9153,-1.4267,1.5182,-1.4648,2024-02-11 20:32:16.533,0.0
0.1099,-0.0989,-0.915,-1.1902,1.5411,-1.4038,2024-02-11 20:32:16.553,0.0
0.1091,-0.0979,-0.9126,-1.3962,1.3962,-1.3428,2024-02-11 20:32:16.572,0.0
0.0937,-0.0769,-0.8369,1.0605,4.1885,-1.5564,2024-02-11 20:32:16.589,0.0
0.137,-0.1165,-1.0076,-1.3428,3.7003,-0.9613,2024-02-11 20:32:16.606,0.0
0.0972,-0.0808,-0.8562,-0.5951,3.006,-1.7776,2024-02-11 20:32:16.623,0.0
0.0972,-0.0911,-0.8938,-0.3128,0.2747,-1.3351,2024-02-11 20:32:16.641,0.0
0.1116,-0.1062,-0.929,0.5951,2.3041,-1.7319,2024-02-11 20:32:16.662,0.0
0.1108,-0.0959,-0.9119,-0.8392,1.915,-1.3885,2024-02-11 20:32:16.679,0.0
0.1047,-0.0989,-0.9185,-0.9079,1.8539,-1.4343,2024-02-11 20:32:16.723,0.0
0.1174,-0.1079,-0.9185,-0.5951,1.3351,-1.6251,2024-02-11 20:32:16.724,0.0
0.1108,-0.0989,-0.9258,-1.0147,0.6332,-1.2894,2024-02-11 20:32:16.732,0.0
0.1155,-0.1003,-0.9048,-1.1139,-0.061,-1.7166,2024-02-11 20:32:16.748,0.0
0.1008,-0.0989,-0.9077,-0.8774,-1.1063,-1.9073,2024-02-11 20:32:16.765,0.0
0.1135,-0.1001,-0.9351,-1.1902,-1.5335,-1.6327,2024-02-11 20:32:16.787,0.0
0.1177,-0.0942,-0.9067,-0.6104,-2.1515,-2.1057,2024-02-11 20:32:16.804,0.0
0.1238,-0.0955,-0.9136,-0.7706,-4.0588,-2.7542,2024-02-11 20:32:16.820,0.0
0.1438,-0.0842,-0.9116,-1.0529,-4.715,-5.2032,2024-02-11 20:32:16.841,0.0
0.1101,-0.0793,-0.9373,-0.5493,-3.8376,-6.5308,2024-02-11 20:32:16.854,0.0
0.116,-0.0781,-0.9402,-0.3738,-2.0828,-7.2098,2024-02-11 20:32:16.890,0.0
0.104,-0.0706,-0.9177,-1.442,0.5417,-8.0795,2024-02-11 20:32:16.896,0.0
0.1045,-0.1257,-0.8835,1.6708,-7.3853,-7.9727,2024-02-11 20:32:16.909,0.0
0.0322,-0.0845,-0.9656,1.9608,-10.0555,-7.7896,2024-02-11 20:32:16.944,0.0
0.0657,-0.0417,-0.9045,6.3095,-4.6082,-11.3373,2024-02-11 20:32:16.952,0.0
-0.0796,0.0596,-0.958,7.6294,-20.195,-11.2152,2024-02-11 20:32:16.969,0.0
0.0386,-0.0132,-1.1001,6.5689,-29.8538,-13.2751,2024-02-11 20:32:16.986,0.0
-0.043,0.0232,-1.0906,66.4978,-28.0533,-24.8489,2024-02-11 20:32:17.001,0.0
-0.2712,-0.0134,-1.3916,94.3069,-24.91,-21.6522,2024-02-11 20:32:17.020,0.0
-0.0193,-0.0837,-1.4092,81.7337,-85.7773,-24.7116,2024-02-11 20:32:17.039,0.0
-0.1172,-0.1785,-1.3303,75.4318,-124.6262,-24.0021,2024-02-11 20:32:17.063,0.0
-0.1479,-0.1709,-1.2539,58.1741,-144.0277,-26.3062,2024-02-11 20:32:17.078,0.0
-0.2874,-0.1091,-1.1829,26.4969,-128.8834,-23.9029,2024-02-11 20:32:17.100,0.0
-0.2466,-0.2034,-1.093,15.3885,-116.4551,-28.1525,2024-02-11 20:32:17.116,0.0
-0.2524,-0.2222,-0.9373,8.1406,-115.6921,-30.0369,2024-02-11 20:32:17.137,0.0
-0.3503,-0.2017,-0.7456,8.1024,-104.7516,-32.1655,2024-02-11 20:32:17.155,0.0
-0.4053,-0.2632,-0.6272,25.3067,-100.6622,-35.1944,2024-02-11 20:32:17.184,0.0
-0.5969,-0.3591,-0.9048,29.3198,-97.1527,-34.1492,2024-02-11 20:32:17.190,0.0
-0.6475,-0.3806,-0.825,21.2097,-84.1599,-33.7372,2024-02-11 20:32:17.201,0.0
-0.7258,-0.4038,-0.5559,39.9399,-80.7724,-45.9595,2024-02-11 20:32:17.221,0.0
-0.947,-0.7051,-1.0251,64.8346,-219.0628,-67.421,2024-02-11 20:32:17.238,0.0
-1.5085,-0.6548,-0.7625,70.9839,-250.0,-24.7269,2024-02-11 20:32:17.257,0.0
-0.7195,-0.5825,-0.7864,56.1371,-204.7958,6.6986,2024-02-11 20:32:17.276,0.0
-0.8274,-0.6086,-0.991,49.1333,-189.476,12.0544,2024-02-11 20:32:17.299,0.0
-0.8376,-0.6558,-0.9265,35.4462,-183.3649,16.5939,2024-02-11 20:32:17.313,0.0
-0.7415,-0.7283,-1.1306,15.1978,-176.712,15.564,2024-02-11 20:32:17.331,0.0
-0.7844,-0.7222,-0.9297,5.7907,-153.4958,18.5089,2024-02-11 20:32:17.352,0.0
-0.7632,-0.6338,-0.8618,5.1041,-139.1144,17.7765,2024-02-11 20:32:17.365,0.0
-0.8113,-0.5969,-0.9141,2.6474,-112.3962,20.2408,2024-02-11 20:32:17.391,0.0
-0.8052,-0.5574,-0.8596,-0.8926,-101.6617,26.5579,2024-02-11 20:32:17.402,0.0
-0.6992,-0.5842,-0.8152,-10.8337,-93.0557,32.4478,2024-02-11 20:32:17.421,0.0
-0.6509,-0.5566,-0.6755,-12.4435,-84.8083,33.2184,2024-02-11 20:32:17.438,0.0
-0.6328,-0.502,-0.6262,-9.9106,-75.7523,32.1808,2024-02-11 20:32:17.455,0.0
-0.593,-0.4426,-0.5808,-5.5847,-66.7343,31.1356,2024-02-11 20:32:17.481,0.0
-0.5845,-0.4231,-0.5667,-4.1046,-60.6613,31.8527,2024-02-11 20:32:17.491,0.0
-0.5703,-0.4314,-0.5359,-2.182,-55.4581,31.2119,2024-02-11 20:32:17.509,0.0
-0.5586,-0.4253,-0.4939,3.3951,-49.0952,27.9465,2024-02-11 20:32:17.533,0.0
-0.5198,-0.4055,-0.4758,7.1487,-45.9824,24.498,2024-02-11 20:32:17.547,0.0
-0.4749,-0.3704,-0.4451,8.3313,-43.6096,20.9427,2024-02-11 20:32:17.570,0.0
-0.4653,-0.3501,-0.4121,7.9422,-43.3197,20.9351,2024-02-11 20:32:17.584,0.0
-0.4458,-0.3462,-0.3564,6.3171,-42.1371,19.4397,2024-02-11 20:32:17.602,0.0
-0.4204,-0.3291,-0.3105,8.0566,-40.741,14.3051,2024-02-11 20:32:17.619,0.0
-0.4192,-0.2849,-0.3196,9.346,-38.3148,10.1624,2024-02-11 20:32:17.639,0.0
-0.387,-0.2803,-0.3228,7.103,-34.1187,7.5684,2024-02-11 20:32:17.655,0.0
-0.363,-0.2637,-0.2605,3.7384,-30.3802,3.9291,2024-02-11 20:32:17.678,0.0
-0.3525,-0.2554,-0.2495,1.7471,-25.9171,-0.5417,2024-02-11 20:32:17.696,0.0
-0.321,-0.2329,-0.2373,-1.7319,-19.4397,-2.9678,2024-02-11 20:32:17.718,0.0
-0.304,-0.2107,-0.1929,-7.0724,-13.2904,-5.4169,2024-02-11 20:32:17.729,0.0
-0.2998,-0.2244,-0.1912,-14.1983,-10.8719,-7.8583,2024-02-11 20:32:17.750,0.0
-0.3157,-0.2117,-0.1599,-21.8048,-8.5983,-10.0708,2024-02-11 20:32:17.768,0.0
-0.3125,-0.2126,-0.1558,-25.6119,-3.5629,-15.007,2024-02-11 20:32:17.783,0.0
-0.3079,-0.2185,-0.186,-28.8467,6.1493,-21.7972,2024-02-11 20:32:17.806,0.0
-0.3428,-0.23,-0.219,-30.6854,12.1307,-26.9928,2024-02-11 20:32:17.824,0.0
-0.3604,-0.2642,-0.1956,-32.2571,23.5977,-30.1285,2024-02-11 20:32:17.845,0.0
-0.3528,-0.283,-0.1655,-31.7841,31.6849,-33.165,2024-02-11 20:32:17.860,0.0
-0.3257,-0.3437,0.063,-24.2004,48.317,-36.3388,2024-02-11 20:32:17.874,0.0
-0.2903,-0.48,0.1921,-3.9749,58.8379,-43.1137,2024-02-11 20:32:17.898,0.0
-0.1663,-0.4956,0.1208,9.4681,68.6264,-48.8434,2024-02-11 20:32:17.911,0.0
-0.2861,-0.603,0.0881,28.2288,75.5081,-54.3594,2024-02-11 20:32:17.930,0.0
