acceleration_x,acceleration_y,acceleration_z,gyroscope_x,gyroscope_y,gyroscope_z,timestamp,label
-13896,-608,1420,-16,275,-184,2024-01-24 11:13:09,0.0
-13832,-432,1468,-84,357,-130,2024-01-24 11:13:09,0.0
-13876,-628,1672,-106,350,-128,2024-01-24 11:13:09,0.0
-13956,-456,1592,-124,247,-119,2024-01-24 11:13:09,0.0
-13880,-572,1560,-127,240,-153,2024-01-24 11:13:09,0.0
-13956,-600,1584,-165,217,-171,2024-01-24 11:13:09,0.0
-13800,-712,1612,-168,211,-148,2024-01-24 11:13:09,0.0
-13876,-660,1500,-135,164,-178,2024-01-24 11:13:09,0.0
-13800,-564,1504,-155,238,-183,2024-01-24 11:13:09,0.0
-13848,-692,1496,-219,210,-191,2024-01-24 11:13:09,0.0
-13928,-648,1448,-227,192,-201,2024-01-24 11:13:09,0.0
-13908,-628,1468,-267,206,-178,2024-01-24 11:13:09,0.0
-13872,-676,1540,-293,198,-202,2024-01-24 11:13:09,0.0
-13964,-608,1476,-308,169,-186,2024-01-24 11:13:09,0.0
-13892,-620,1532,-298,148,-183,2024-01-24 11:13:09,0.0
-13956,-576,1508,-338,162,-151,2024-01-24 11:13:09,0.0
-13804,-548,1388,-317,197,-192,2024-01-24 11:13:09,0.0
-13756,-580,1472,-279,226,-179,2024-01-24 11:13:09,0.0
-13816,-460,1608,-298,260,-189,2024-01-24 11:13:09,0.0
-13840,-524,1672,-310,265,-183,2024-01-24 11:13:09,0.0
-13920,-632,1584,-301,249,-189,2024-01-24 11:13:09,0.0
-13852,-572,1600,-326,292,-183,2024-01-24 11:13:09,0.0
-13852,-596,1576,-332,253,-176,2024-01-24 11:13:09,0.0
-13844,-520,1680,-338,243,-152,2024-01-24 11:13:09,0.0
-13936,-536,1680,-346,253,-149,2024-01-24 11:13:09,0.0
-13944,-512,1492,-374,283,-142,2024-01-24 11:13:09,0.0
-13784,-508,1620,-373,271,-150,2024-01-24 11:13:09,0.0
-13824,-504,1740,-354,278,-151,2024-01-24 11:13:09,0.0
-14012,-524,1728,-320,267,-133,2024-01-24 11:13:09,0.0
-13900,-612,1640,-330,190,-131,2024-01-24 11:13:09,0.0
-13868,-568,1596,-283,194,-161,2024-01-24 11:13:09,0.0
-14036,-580,1596,-223,105,-164,2024-01-24 11:13:09,0.0
-14036,-612,1648,-231,2,-175,2024-01-24 11:13:09,0.0
-13860,-640,1660,-205,-105,-185,2024-01-24 11:13:09,0.0
-13888,-516,1636,-176,-126,-174,2024-01-24 11:13:09,0.0
-13852,-636,1560,-237,-46,-103,2024-01-24 11:13:09,0.0
-13860,-584,1504,-250,12,-96,2024-01-24 11:13:09,0.0
-13700,-624,1604,-262,60,-47,2024-01-24 11:13:09,0.0
-13728,-512,1736,-298,108,-45,2024-01-24 11:13:09,0.0
-13796,-628,1704,-303,137,-83,2024-01-24 11:13:10,0.0
-13816,-540,1660,-259,131,-88,2024-01-24 11:13:10,0.0
-13712,-548,1756,-284,186,-99,2024-01-24 11:13:10,0.0
-13788,-612,1672,-284,247,-150,2024-01-24 11:13:10,0.0
-13824,-720,1900,-240,240,-156,2024-01-24 11:13:10,0.0
-13840,-572,1824,-250,269,-180,2024-01-24 11:13:10,0.0
-13844,-572,1704,-212,295,-173,2024-01-24 11:13:10,0.0
-13880,-560,1756,-225,305,-182,2024-01-24 11:13:10,0.0
-13896,-588,1740,-171,282,-184,2024-01-24 11:13:10,0.0
-14012,-540,1708,-134,213,-210,2024-01-24 11:13:10,0.0
-13968,-632,1588,-154,198,-202,2024-01-24 11:13:10,0.0
-13912,-560,1720,-157,142,-175,2024-01-24 11:13:10,0.0
-13912,-592,1636,-110,84,-179,2024-01-24 11:13:10,0.0
-13864,-516,1472,-107,94,-208,2024-01-24 11:13:10,0.0
-13928,-512,1408,-122,111,-230,2024-01-24 11:13:10,0.0
-13968,-452,1668,-133,111,-239,2024-01-24 11:13:10,0.0
-13860,-520,1528,-147,142,-225,2024-01-24 11:13:10,0.0
-13856,-408,1396,-227,161,-176,2024-01-24 11:13:10,0.0
-13828,-540,1516,-245,202,-219,2024-01-24 11:13:10,0.0
-13800,-504,1472,-261,225,-198,2024-01-24 11:13:10,0.0
-13920,-524,1444,-313,271,-152,2024-01-24 11:13:10,0.0
-13900,-512,1488,-296,305,-151,2024-01-24 11:13:10,0.0
-13864,-568,1420,-326,265,-172,2024-01-24 11:13:10,0.0
-13788,-492,1580,-329,311,-180,2024-01-24 11:13:10,0.0
-13876,-556,1552,-322,356,-147,2024-01-24 11:13:10,0.0
-13820,-612,1644,-330,457,-143,2024-01-24 11:13:10,0.0
-13820,-528,1684,-308,492,-152,2024-01-24 11:13:10,0.0
-13868,-532,1656,-272,429,-129,2024-01-24 11:13:10,0.0
-13896,-612,1760,-280,385,-160,2024-01-24 11:13:10,0.0
-13812,-628,1584,-298,386,-109,2024-01-24 11:13:10,0.0
-13816,-484,1668,-302,424,-109,2024-01-24 11:13:10,0.0
-13844,-608,1616,-245,482,-151,2024-01-24 11:13:10,0.0
-13816,-544,1608,-253,513,-132,2024-01-24 11:13:10,0.0
-13884,-604,1668,-214,471,-139,2024-01-24 11:13:10,0.0
-13940,-612,1568,-251,486,-151,2024-01-24 11:13:10,0.0
-13912,-532,1652,-264,480,-159,2024-01-24 11:13:10,0.0
-13904,-620,1592,-302,421,-141,2024-01-24 11:13:10,0.0
-13812,-504,1536,-309,378,-148,2024-01-24 11:13:10,0.0
-13784,-516,1616,-317,360,-162,2024-01-24 11:13:10,0.0
-13888,-504,1584,-292,434,-157,2024-01-24 11:13:10,0.0
-13680,-612,1600,-292,537,-194,2024-01-24 11:13:10,0.0
-13716,-536,1692,-312,534,-173,2024-01-24 11:13:10,0.0
-13700,-704,1432,-298,641,-199,2024-01-24 11:13:10,0.0
-13808,-608,1540,-253,682,-197,2024-01-24 11:13:10,0.0
-13756,-524,1524,-180,782,-198,2024-01-24 11:13:10,0.0
-13880,-684,1748,-182,949,-208,2024-01-24 11:13:10,0.0
-13896,-652,1740,-180,1170,-197,2024-01-24 11:13:10,0.0
-13968,-776,1512,-202,1321,-175,2024-01-24 11:13:10,0.0
-13860,-700,1500,-189,1286,-161,2024-01-24 11:13:10,0.0
-14088,-624,1344,-124,1171,-165,2024-01-24 11:13:10,0.0
-13940,-488,1192,-174,957,-194,2024-01-24 11:13:10,0.0
-14000,-572,1136,-165,811,-208,2024-01-24 11:13:10,0.0
-13964,-628,1236,-198,698,-177,2024-01-24 11:13:10,0.0
-13996,-564,1384,-205,638,-151,2024-01-24 11:13:10,0.0
-14000,-520,1208,-200,562,-143,2024-01-24 11:13:10,0.0
-14060,-496,1204,-144,461,-158,2024-01-24 11:13:10,0.0
-13800,-472,1412,-139,333,-166,2024-01-24 11:13:10,0.0
-13688,-632,1332,-86,295,-189,2024-01-24 11:13:10,0.0
-13792,-652,1132,-100,221,-212,2024-01-24 11:13:10,0.0
-13764,-540,1028,-121,207,-247,2024-01-24 11:13:10,0.0
-13788,-572,1092,-106,248,-194,2024-01-24 11:13:11,
-13876,-468,1036,-121,235,-201,2024-01-24 11:13:11,0.0
-13844,-492,896,-123,217,-192,2024-01-24 11:13:11,0.0
-13836,-524,1116,-129,154,-192,2024-01-24 11:13:11,0.0
-13744,-576,900,-91,169,-193,2024-01-24 11:13:11,0.0
-13756,-520,960,-105,200,-184,2024-01-24 11:13:11,0.0
-13768,-492,1024,-104,197,-197,2024-01-24 11:13:11,0.0
-13708,-496,1228,-74,252,-186,2024-01-24 11:13:11,0.0
-13848,-548,1148,-99,296,-208,2024-01-24 11:13:11,0.0
-13784,-452,1104,-112,277,-207,2024-01-24 11:13:11,0.0
-13916,-644,1204,-122,164,-212,2024-01-24 11:13:11,0.0
-13872,-580,1160,-162,124,-182,2024-01-24 11:13:11,0.0
-13784,-484,1064,-202,148,-156,2024-01-24 11:13:11,0.0
-13904,-376,1124,-259,150,-136,2024-01-24 11:13:11,0.0
-14028,-492,1100,-316,17,-112,2024-01-24 11:13:11,0.0
-13940,-412,1048,-329,-66,-101,2024-01-24 11:13:11,0.0
-13720,-536,1360,-314,-58,-125,2024-01-24 11:13:11,0.0
-13724,-524,1164,-341,-22,-129,2024-01-24 11:13:11,0.0
-13800,-636,1276,-349,35,-147,2024-01-24 11:13:11,0.0
-13840,-544,1224,-332,55,-171,2024-01-24 11:13:11,0.0
-13920,-544,1164,-337,8,-125,2024-01-24 11:13:11,0.0
-13772,-584,1228,-344,-23,-127,2024-01-24 11:13:11,0.0
-13808,-552,1268,-318,25,-133,2024-01-24 11:13:11,0.0
-13764,-556,1212,-319,138,-147,2024-01-24 11:13:11,0.0
-13744,-596,1192,-315,224,-144,2024-01-24 11:13:11,0.0
-13772,-624,1248,-299,264,-142,2024-01-24 11:13:11,0.0
-13864,-616,1140,-322,276,-128,2024-01-24 11:13:11,0.0
-13948,-508,1408,-335,185,-185,2024-01-24 11:13:11,0.0
-13872,-496,1228,-316,187,-176,2024-01-24 11:13:11,0.0
-13960,-504,1080,-314,95,-191,2024-01-24 11:13:11,0.0
-14000,-500,1060,-346,-158,-246,2024-01-24 11:13:11,0.0
-13980,-512,1192,-373,-425,-224,2024-01-24 11:13:11,0.0
-13664,-516,1292,-396,-557,-220,2024-01-24 11:13:11,0.0
-13628,-592,1180,-457,-308,-217,2024-01-24 11:13:11,0.0
-13688,-624,1356,-475,-22,-199,2024-01-24 11:13:11,0.0
-13732,-612,1336,-421,118,-225,2024-01-24 11:13:11,0.0
-13784,-584,1352,-418,182,-206,2024-01-24 11:13:11,0.0
-13908,-616,1344,-313,154,-192,2024-01-24 11:13:11,0.0
-14000,-640,1416,-248,96,-186,2024-01-24 11:13:11,0.0
-13968,-564,1260,-198,39,-189,2024-01-24 11:13:11,0.0
-13876,-708,1324,-136,20,-178,2024-01-24 11:13:11,0.0
-13836,-568,1312,-92,46,-157,2024-01-24 11:13:11,0.0
-13724,-516,1276,-32,108,-154,2024-01-24 11:13:11,0.0
-13804,-428,1324,-54,84,-160,2024-01-24 11:13:11,0.0
-13844,-512,1296,-55,163,-135,2024-01-24 11:13:11,0.0
-13804,-568,1432,-78,249,-171,2024-01-24 11:13:11,0.0
-13656,-484,1432,-94,367,-163,2024-01-24 11:13:11,0.0
-13660,-408,1532,-181,449,-184,2024-01-24 11:13:11,0.0
-13996,-244,1284,-332,425,-117,2024-01-24 11:13:11,0.0
-14220,-392,1312,-407,-109,-123,2024-01-24 11:13:11,0.0
-14152,-444,1436,-412,-570,-225,2024-01-24 11:13:11,0.0
-13708,-504,1312,-391,-551,-228,2024-01-24 11:13:11,0.0
-13472,-616,1396,-399,-111,-199,2024-01-24 11:13:11,0.0
-13564,-692,1424,-475,217,-190,2024-01-24 11:13:11,0.0
-13864,-696,1640,-557,193,-149,2024-01-24 11:13:11,0.0
-13884,-652,1624,-519,47,-196,2024-01-24 11:13:11,0.0
-13984,-552,1584,-461,37,-258,2024-01-24 11:13:11,0.0
-14080,-760,1440,-415,221,-287,2024-01-24 11:13:11,0.0
-14292,-952,1520,-349,198,-270,2024-01-24 11:13:11,0.0
-13792,-728,1300,-324,171,-246,2024-01-24 11:13:11,0.0
-13704,-800,1368,-159,101,-240,2024-01-24 11:13:12,0.0
-13944,-444,1656,-61,152,-253,2024-01-24 11:13:12,0.0
-14620,-896,1644,60,128,-390,2024-01-24 11:13:12,0.0
-11032,-288,944,-547,-1474,-136,2024-01-24 11:13:12,0.0
-12856,-416,1008,350,835,-295,2024-01-24 11:13:12,0.0
-14044,-264,1676,-17,1524,-248,2024-01-24 11:13:12,0.0
-14612,-956,2280,-37,636,-209,2024-01-24 11:13:12,0.0
-14172,-876,1724,14,172,-224,2024-01-24 11:13:12,0.0
-13992,-820,1320,85,84,-195,2024-01-24 11:13:12,0.0
-13904,-708,1300,4,402,-152,2024-01-24 11:13:12,0.0
-14060,-804,1532,44,207,-259,2024-01-24 11:13:12,0.0
-13952,-988,1540,134,-151,-347,2024-01-24 11:13:12,0.0
-13832,-1048,1392,249,-455,-434,2024-01-24 11:13:12,0.0
-14088,-1048,1536,352,-848,-420,2024-01-24 11:13:12,0.0
-14000,-836,1420,358,-1116,-452,2024-01-24 11:13:12,0.0
-13708,-1116,1452,425,-948,-615,2024-01-24 11:13:12,0.0
-13964,-1248,1492,707,-978,-835,2024-01-24 11:13:12,0.0
-14444,-1352,1328,1160,-1906,-1054,2024-01-24 11:13:12,0.0
-14888,-1436,868,1628,-3672,-1377,2024-01-24 11:13:12,0.0
-14520,-1600,920,1876,-4963,-1725,2024-01-24 11:13:12,0.0
-14088,-1908,1128,1953,-5174,-2130,2024-01-24 11:13:12,0.0
-13564,-1540,1260,1836,-4285,-2466,2024-01-24 11:13:12,0.0
-13640,-1460,1148,1890,-3070,-2472,2024-01-24 11:13:12,0.0
-13804,-1396,980,1999,-1729,-2237,2024-01-24 11:13:12,0.0
-13832,-1324,1048,1903,-1022,-2224,2024-01-24 11:13:12,0.0
-13912,-1192,1600,1744,-860,-2021,2024-01-24 11:13:12,0.0
-13236,-1840,1928,1627,-324,-1513,2024-01-24 11:13:12,0.0
-12772,-1840,1420,1736,725,-834,2024-01-24 11:13:12,0.0
-12080,-1320,1200,1432,1628,-628,2024-01-24 11:13:12,0.0
-12336,-496,1648,1002,2671,20,2024-01-24 11:13:12,0.0
-12332,-328,2228,814,4003,506,2024-01-24 11:13:12,0.0
-12704,-380,2060,505,5261,524,2024-01-24 11:13:12,0.0
-13704,-588,1744,391,5575,612,2024-01-24 11:13:12,0.0
-13652,-1264,1176,276,5822,505,2024-01-24 11:13:12,0.0
-13484,-1920,548,165,5996,369,2024-01-24 11:13:12,0.0
-14156,-1360,20,-270,5909,233,2024-01-24 11:13:12,0.0
-14860,188,212,-898,5150,652,2024-01-24 11:13:12,0.0
-15684,1580,204,-1296,4803,693,2024-01-24 11:13:12,0.0
-16056,1968,-660,-1690,4041,1354,2024-01-24 11:13:12,0.0
-14268,1852,-1584,-2457,3596,1878,2024-01-24 11:13:12,0.0
-12880,1216,-428,-3143,4625,2642,2024-01-24 11:13:12,
-12696,1116,1436,-3716,4893,3381,2024-01-24 11:13:12,0.0
-13448,1772,2680,-4224,4557,4088,2024-01-24 11:13:12,0.0
-12996,512,2984,-4072,4969,4094,2024-01-24 11:13:12,0.0
-14116,-552,2852,-3584,5847,4004,2024-01-24 11:13:12,0.0
-14680,-2836,3044,-2889,7030,3578,2024-01-24 11:13:12,0.0
-17004,-2328,3276,-2386,6447,3068,2024-01-24 11:13:12,0.0
-16368,-2288,1188,-2018,3251,2857,2024-01-24 11:13:12,0.0
-14940,-2488,780,-1560,2009,1868,2024-01-24 11:13:12,0.0
-14816,-2060,1984,-900,1333,1021,2024-01-24 11:13:12,0.0
-14616,-876,2148,-807,150,596,2024-01-24 11:13:12,0.0
-13760,36,1060,-642,-916,335,2024-01-24 11:13:12,0.0
-11784,420,-624,-491,-1399,-443,2024-01-24 11:13:12,0.0
-10984,736,-1580,-416,-278,-1195,2024-01-24 11:13:12,0.0
-10424,804,-1684,-666,1020,-1555,2024-01-24 11:13:12,0.0
-10224,608,-928,-1129,2282,-1938,2024-01-24 11:13:12,0.0
-10452,532,-96,-1626,3434,-2220,2024-01-24 11:13:12,0.0
-12100,928,116,-2000,3580,-2107,2024-01-24 11:13:12,0.0
-13316,996,-148,-2150,3392,-1682,2024-01-24 11:13:12,0.0
-14660,920,-1036,-1991,3458,-1096,2024-01-24 11:13:12,0.0
-15140,608,-1008,-1978,3485,-836,2024-01-24 11:13:13,0.0
-14736,-192,240,-2075,2811,-1073,2024-01-24 11:13:13,0.0
-14744,248,1236,-2219,1893,-1100,2024-01-24 11:13:13,0.0
-13956,1220,1272,-2062,1321,-1365,2024-01-24 11:13:13,0.0
-12904,2536,1120,-1222,567,-1431,2024-01-24 11:13:13,0.0
-10992,2880,716,8,-195,-1389,2024-01-24 11:13:13,0.0
-9764,2696,1284,1156,-896,-1044,2024-01-24 11:13:13,0.0
-8696,2268,152,1208,-1278,-24,2024-01-24 11:13:13,0.0
-6972,1124,-1936,776,-346,1084,2024-01-24 11:13:13,0.0
-7020,-452,-4832,292,2884,2221,2024-01-24 11:13:13,0.0
-8952,-840,-8252,642,7777,3167,2024-01-24 11:13:13,0.0
-17416,336,-8156,824,14292,4293,2024-01-24 11:13:13,0.0
-24832,1184,-6492,1069,14790,6213,2024-01-24 11:13:13,0.0
-23320,-2276,-4048,1272,7952,5053,2024-01-24 11:13:13,0.0
-14472,-4856,-1236,3368,5955,-486,2024-01-24 11:13:13,0.0
-8532,-6384,-1348,3837,5702,-5777,2024-01-24 11:13:13,0.0
-7796,-5744,-4648,4498,8693,-9279,2024-01-24 11:13:13,0.0
-9468,-2228,-6776,2971,12515,-8737,2024-01-24 11:13:13,0.0
-13232,1032,-5108,1293,13167,-5830,2024-01-24 11:13:13,0.0
-15272,704,-3808,-437,10979,-2629,2024-01-24 11:13:13,0.0
-13744,1048,-4328,-3209,6240,-375,2024-01-24 11:13:13,0.0
-11460,2052,-3860,-5995,3658,1014,2024-01-24 11:13:13,0.0
-9596,2332,-2328,-8167,1950,2103,2024-01-24 11:13:13,0.0
-9264,3372,-1068,-10280,1101,4638,2024-01-24 11:13:13,0.0
-6972,3156,-580,-10964,1635,7318,2024-01-24 11:13:13,0.0
-6512,2112,-1432,-10219,3600,8307,2024-01-24 11:13:13,0.0
-6436,-1032,-2360,-9446,5763,7502,2024-01-24 11:13:13,0.0
-9020,-4932,-4420,-9670,6256,6315,2024-01-24 11:13:13,0.0
-8808,-3712,-2620,-9179,4686,4659,2024-01-24 11:13:13,0.0
-9824,1080,-2144,-7253,1081,4070,2024-01-24 11:13:13,0.0
-11276,4684,-3600,-5565,-2898,4084,2024-01-24 11:13:13,0.0
-12140,5016,-4960,-5787,-6035,4442,2024-01-24 11:13:13,0.0
-9664,3040,-5172,-6165,-7172,3513,2024-01-24 11:13:13,0.0
-9876,424,-4668,-5706,-6588,2786,2024-01-24 11:13:13,0.0
-11168,1312,-3740,-5014,-6965,2426,2024-01-24 11:13:13,0.0
-11396,3064,-4836,-4685,-7503,2148,2024-01-24 11:13:13,0.0
-12332,3864,-5972,-5436,-5231,2078,2024-01-24 11:13:13,0.0
-12676,3728,-4572,-5209,-3521,1710,2024-01-24 11:13:13,0.0
-12816,3796,-3876,-4500,-3400,1225,2024-01-24 11:13:13,0.0
-12612,3400,-3784,-3025,-3701,-399,2024-01-24 11:13:13,0.0
-12860,4536,-4296,-2212,-4226,-1453,2024-01-24 11:13:13,0.0
-14028,4764,-3884,-1488,-4616,-2047,2024-01-24 11:13:13,0.0
-14532,4076,-3604,-1416,-5310,-2614,2024-01-24 11:13:13,0.0
-14468,4172,-3380,-1565,-5952,-3261,2024-01-24 11:13:13,0.0
-14348,4672,-2760,-1352,-6370,-3456,2024-01-24 11:13:13,0.0
-14612,4912,-2852,-1134,-6112,-3015,2024-01-24 11:13:13,0.0
-15128,4340,-2440,-890,-5639,-2553,2024-01-24 11:13:13,0.0
-15644,4084,-2824,-805,-5148,-1807,2024-01-24 11:13:13,0.0
-16288,3656,-2920,-392,-5160,-1370,2024-01-24 11:13:13,0.0
-16916,3596,-2848,78,-5183,-1044,2024-01-24 11:13:13,0.0
-16464,4400,-2824,306,-5739,-1296,2024-01-24 11:13:13,0.0
-16448,4592,-2136,620,-6174,-1938,2024-01-24 11:13:13,0.0
-17376,4540,-2212,857,-6562,-1981,2024-01-24 11:13:13,0.0
-18148,5216,-2172,1234,-6517,-1468,2024-01-24 11:13:13,0.0
-18184,3020,-1048,2193,-5241,-441,2024-01-24 11:13:13,0.0
-17624,3744,-1552,3003,-4230,120,2024-01-24 11:13:13,0.0
-17852,4324,-1976,3307,-3235,417,2024-01-24 11:13:13,0.0
-18116,4568,-1776,3379,-2856,390,2024-01-24 11:13:13,0.0
-18216,4328,-1504,3418,-2510,-26,2024-01-24 11:13:13,0.0
-18000,4120,-1808,3459,-2227,-693,2024-01-24 11:13:14,0.0
-18332,3648,-1644,3647,-1410,-897,2024-01-24 11:13:14,0.0
-17920,3700,-1872,3581,-537,-771,2024-01-24 11:13:14,0.0
-17696,3600,-1760,3470,217,-541,2024-01-24 11:13:14,0.0
-17088,3412,-1468,3442,1185,-397,2024-01-24 11:13:14,0.0
-16596,3412,-1660,3586,2150,-530,2024-01-24 11:13:14,0.0
-16992,3332,-1648,3735,2826,-477,2024-01-24 11:13:14,0.0
-16648,3028,-1460,3753,3113,-336,2024-01-24 11:13:14,0.0
-16572,3024,-1332,3574,3206,-90,2024-01-24 11:13:14,0.0
-15968,2952,-1284,3349,3161,20,2024-01-24 11:13:14,0.0
-15848,2632,-896,3221,2878,74,2024-01-24 11:13:14,0.0
-15348,2296,-876,3155,2444,-168,2024-01-24 11:13:14,0.0
-14732,2076,-776,3095,1898,-690,2024-01-24 11:13:14,0.0
-14404,2284,-736,2918,1147,-1563,2024-01-24 11:13:14,0.0
-14916,1980,-940,2776,590,-2057,2024-01-24 11:13:14,0.0
-14904,1488,-1388,2378,24,-2336,2024-01-24 11:13:14,0.0
-15404,1876,-760,1775,-594,-2335,2024-01-24 11:13:14,0.0
-14800,1716,-500,1263,-1052,-2305,2024-01-24 11:13:14,0.0
-14420,1240,-456,995,-325,-2438,2024-01-24 11:13:14,0.0
-14204,1260,-168,863,664,-2411,2024-01-24 11:13:14,0.0
-13888,1232,-188,739,1989,-2411,2024-01-24 11:13:14,0.0
-13760,884,-772,604,3071,-2306,2024-01-24 11:13:14,
-14052,588,-1152,609,2632,-2300,2024-01-24 11:13:14,0.0
-14316,608,-1412,689,633,-2222,2024-01-24 11:13:14,0.0
-13608,372,-1520,1051,-1691,-2443,2024-01-24 11:13:14,0.0
-13556,508,-800,1353,-2725,-2430,2024-01-24 11:13:14,0.0
-13536,572,-224,1626,-3545,-2457,2024-01-24 11:13:14,0.0
-13504,412,212,1866,-4744,-2465,2024-01-24 11:13:14,0.0
-13680,520,224,1841,-5083,-2731,2024-01-24 11:13:14,0.0
-13376,208,564,1522,-5425,-3038,2024-01-24 11:13:14,0.0
-13664,-8,628,1101,-6076,-3187,2024-01-24 11:13:14,0.0
-13868,320,1112,945,-6554,-2891,2024-01-24 11:13:14,0.0
-13836,996,552,823,-6129,-2533,2024-01-24 11:13:14,0.0
-13792,1348,284,670,-4716,-2168,2024-01-24 11:13:14,0.0
-14164,1168,-40,392,-3300,-1876,2024-01-24 11:13:14,0.0
-13936,-72,1208,519,-2940,-1890,2024-01-24 11:13:14,0.0
-13844,-148,1432,588,-3887,-2558,2024-01-24 11:13:14,0.0
-13408,-28,1068,770,-4185,-2864,2024-01-24 11:13:14,0.0
-13184,-36,1320,1124,-3995,-2864,2024-01-24 11:13:14,0.0
-13256,-64,1240,994,-4063,-2596,2024-01-24 11:13:14,0.0
-12952,-536,1732,1066,-3677,-2438,2024-01-24 11:13:14,0.0
-13324,-668,1616,1251,-3882,-2437,2024-01-24 11:13:14,0.0
-13876,-556,2568,1158,-4246,-2190,2024-01-24 11:13:14,0.0
-13288,-960,3488,800,-5264,-1995,2024-01-24 11:13:14,0.0
-13300,-276,4288,606,-6032,-2088,2024-01-24 11:13:14,0.0
-13568,1376,4480,708,-7177,-1703,2024-01-24 11:13:14,0.0
-12564,1636,4316,1072,-8798,-999,2024-01-24 11:13:14,0.0
-10248,328,4220,1713,-9617,-701,2024-01-24 11:13:14,0.0
-8184,-496,3564,2253,-9188,-853,2024-01-24 11:13:14,0.0
-6592,-1336,3364,2948,-7654,-1101,2024-01-24 11:13:14,0.0
-5624,-1520,2524,3768,-5471,-1490,2024-01-24 11:13:14,0.0
-5600,-1892,1456,4238,-3895,-1888,2024-01-24 11:13:14,0.0
-6308,-1264,1096,4720,-2231,-2233,2024-01-24 11:13:14,0.0
-7524,-484,656,4990,108,-1580,2024-01-24 11:13:14,0.0
-8352,304,664,4698,2316,-815,2024-01-24 11:13:14,0.0
-9436,1352,800,4098,3117,-752,2024-01-24 11:13:14,0.0
-12084,1392,1084,3754,3878,-1058,2024-01-24 11:13:14,0.0
-16160,236,1580,3371,3066,-1059,2024-01-24 11:13:14,0.0
-19064,-76,1872,2764,658,-479,2024-01-24 11:13:14,0.0
-18708,-52,1476,2028,-2033,-163,2024-01-24 11:13:14,0.0
-16748,-544,1048,1511,-3447,-163,2024-01-24 11:13:15,0.0
-14888,-1248,1396,1302,-2659,-137,2024-01-24 11:13:15,0.0
-12468,-1436,416,1550,399,-440,2024-01-24 11:13:15,0.0
-11560,-1036,752,1446,2631,-454,2024-01-24 11:13:15,0.0
-12048,-236,1736,1410,3876,-297,2024-01-24 11:13:15,0.0
-12632,-652,3096,1470,2767,-828,2024-01-24 11:13:15,0.0
-13584,-1080,2716,1500,1672,-1493,2024-01-24 11:13:15,0.0
-13844,-908,2584,1400,1633,-1635,2024-01-24 11:13:15,0.0
-13700,-656,2736,1362,1955,-1660,2024-01-24 11:13:15,0.0
-14256,-704,3092,1420,2172,-1490,2024-01-24 11:13:15,0.0
-14724,-644,3096,1435,2128,-979,2024-01-24 11:13:15,0.0
-15176,-600,2652,1361,1967,-467,2024-01-24 11:13:15,0.0
-15000,-272,1960,1154,1594,-54,2024-01-24 11:13:15,0.0
-13380,-256,2640,976,963,15,2024-01-24 11:13:15,0.0
-13452,-432,2704,979,1307,-170,2024-01-24 11:13:15,0.0
-13872,-888,2964,965,1011,-355,2024-01-24 11:13:15,0.0
-13828,-736,2896,975,613,-498,2024-01-24 11:13:15,0.0
-14188,-504,2872,988,446,-547,2024-01-24 11:13:15,0.0
-14188,-124,2844,872,207,-466,2024-01-24 11:13:15,0.0
-14240,28,3084,708,-74,-362,2024-01-24 11:13:15,0.0
-14060,-264,3272,547,-162,-303,2024-01-24 11:13:15,0.0
-13608,-560,3028,319,-104,-283,2024-01-24 11:13:15,0.0
-13668,-900,3052,105,11,-267,2024-01-24 11:13:15,0.0
-13660,-1008,3064,-172,354,-171,2024-01-24 11:13:15,0.0
-13948,-956,3032,-294,624,-19,2024-01-24 11:13:15,0.0
-14008,-344,3212,-486,654,366,2024-01-24 11:13:15,0.0
-14020,-32,3276,-595,856,634,2024-01-24 11:13:15,0.0
-13564,-440,3452,-763,789,613,2024-01-24 11:13:15,0.0
-13524,-792,3532,-919,851,418,2024-01-24 11:13:15,0.0
-13364,-1104,3512,-969,1137,229,2024-01-24 11:13:15,0.0
-13488,-1168,3560,-931,1554,205,2024-01-24 11:13:15,0.0
-13876,-1004,3532,-804,1792,219,2024-01-24 11:13:15,0.0
-14008,-544,3568,-744,1456,356,2024-01-24 11:13:15,0.0
-13820,-612,3520,-715,1042,260,2024-01-24 11:13:15,0.0
-13504,-816,3484,-752,679,16,2024-01-24 11:13:15,0.0
-13656,-1028,3440,-720,470,-291,2024-01-24 11:13:15,0.0
-13840,-1024,3368,-608,465,-484,2024-01-24 11:13:15,0.0
-13896,-1164,3136,-512,514,-522,2024-01-24 11:13:15,0.0
-14020,-988,2968,-498,466,-428,2024-01-24 11:13:15,0.0
-14132,-948,2820,-472,269,-345,2024-01-24 11:13:15,0.0
-14096,-940,3120,-546,69,-224,2024-01-24 11:13:15,0.0
-14068,-944,2968,-581,-98,-198,2024-01-24 11:13:15,0.0
-13836,-1124,3068,-614,-309,-181,2024-01-24 11:13:15,0.0
-13684,-1096,2896,-594,-288,-176,2024-01-24 11:13:15,0.0
-13644,-996,3080,-585,-64,-115,2024-01-24 11:13:15,0.0
-13636,-1052,2944,-564,156,-123,2024-01-24 11:13:15,0.0
-13832,-996,3012,-537,282,-106,2024-01-24 11:13:15,0.0
-13896,-952,2944,-490,224,-141,2024-01-24 11:13:15,0.0
-13756,-1068,2940,-476,161,-119,2024-01-24 11:13:15,0.0
-13776,-836,3140,-504,162,-129,2024-01-24 11:13:15,0.0
-13840,-896,3016,-575,161,-94,2024-01-24 11:13:15,0.0
-13840,-736,2956,-580,198,-13,2024-01-24 11:13:15,0.0
-13872,-808,2916,-611,219,-36,2024-01-24 11:13:15,0.0
-13852,-820,2952,-577,232,-28,2024-01-24 11:13:15,0.0
-13844,-724,2848,-557,215,-30,2024-01-24 11:13:15,0.0
-13852,-648,2992,-540,175,-28,2024-01-24 11:13:15,0.0
-13796,-804,2984,-514,189,-38,2024-01-24 11:13:15,0.0
-13868,-1040,3028,-444,216,-91,2024-01-24 11:13:15,0.0
-13820,-920,3060,-416,143,-97,2024-01-24 11:13:15,0.0
-13820,-916,3076,-407,101,-121,2024-01-24 11:13:15,0.0
-13800,-788,3128,-411,140,-137,2024-01-24 11:13:16,0.0
-13704,-780,3040,-417,165,-157,2024-01-24 11:13:16,
-13708,-728,3060,-394,208,-142,2024-01-24 11:13:16,0.0
-13832,-676,2848,-410,208,-136,2024-01-24 11:13:16,0.0
-13848,-852,3008,-406,177,-122,2024-01-24 11:13:16,0.0
-13756,-788,3052,-381,154,-117,2024-01-24 11:13:16,0.0
-13700,-896,2980,-312,215,-129,2024-01-24 11:13:16,0.0
-13792,-892,2944,-313,249,-157,2024-01-24 11:13:16,0.0
-13820,-916,2992,-286,242,-133,2024-01-24 11:13:16,0.0
-13832,-864,3036,-240,165,-168,2024-01-24 11:13:16,0.0
-13844,-932,2900,-205,107,-193,2024-01-24 11:13:16,0.0
-13812,-796,2832,-216,81,-206,2024-01-24 11:13:16,0.0
-13880,-712,2960,-206,125,-177,2024-01-24 11:13:16,0.0
-13888,-728,3016,-239,178,-158,2024-01-24 11:13:16,0.0
-13732,-804,3028,-238,220,-143,2024-01-24 11:13:16,0.0
-13784,-772,2912,-243,215,-163,2024-01-24 11:13:16,0.0
-13876,-792,2968,-282,263,-168,2024-01-24 11:13:16,0.0
-13848,-844,3012,-253,259,-156,2024-01-24 11:13:16,0.0
-13756,-800,2888,-235,309,-155,2024-01-24 11:13:16,0.0
-13840,-788,2904,-206,300,-170,2024-01-24 11:13:16,0.0
-13868,-692,2900,-203,253,-191,2024-01-24 11:13:16,0.0
-13700,-680,2840,-207,272,-164,2024-01-24 11:13:16,0.0
-13780,-656,3004,-242,260,-188,2024-01-24 11:13:16,0.0
-13796,-760,2860,-252,256,-202,2024-01-24 11:13:16,0.0
-13932,-700,2748,-262,205,-191,2024-01-24 11:13:16,0.0
-13792,-716,3000,-265,155,-147,2024-01-24 11:13:16,0.0
-13752,-772,3072,-279,165,-169,2024-01-24 11:13:16,0.0
-13708,-852,3028,-265,263,-185,2024-01-24 11:13:16,0.0
-13736,-748,3080,-263,285,-174,2024-01-24 11:13:16,0.0
-13804,-744,3052,-251,283,-153,2024-01-24 11:13:16,0.0
-13872,-664,2932,-246,280,-198,2024-01-24 11:13:16,0.0
-13936,-664,3044,-270,294,-152,2024-01-24 11:13:16,0.0
-13784,-764,3020,-259,296,-143,2024-01-24 11:13:16,0.0
-13888,-792,2936,-226,300,-144,2024-01-24 11:13:16,0.0
-13908,-708,2880,-200,261,-173,2024-01-24 11:13:16,0.0
-13736,-788,2916,-135,230,-164,2024-01-24 11:13:16,0.0
-13844,-736,3148,-174,257,-165,2024-01-24 11:13:16,0.0
-13832,-704,3044,-129,324,-120,2024-01-24 11:13:16,0.0
-13776,-756,2900,-91,314,-183,2024-01-24 11:13:16,0.0
-13860,-612,2852,-105,304,-212,2024-01-24 11:13:16,0.0
-13776,-712,2712,-143,302,-206,2024-01-24 11:13:16,0.0
-13860,-836,3072,-134,315,-180,2024-01-24 11:13:16,0.0
-13796,-756,2884,-152,346,-200,2024-01-24 11:13:16,0.0
-14000,-680,2872,-139,348,-176,2024-01-24 11:13:16,0.0
-13988,-692,3004,-187,162,-168,2024-01-24 11:13:16,0.0
-13844,-728,2932,-164,107,-164,2024-01-24 11:13:16,0.0
-13716,-720,2888,-214,143,-146,2024-01-24 11:13:16,0.0
-13824,-624,2852,-230,181,-151,2024-01-24 11:13:16,0.0
-13756,-712,2944,-257,191,-165,2024-01-24 11:13:16,0.0
-13828,-652,2880,-252,239,-147,2024-01-24 11:13:16,0.0
-13816,-692,2944,-232,190,-166,2024-01-24 11:13:16,0.0
-13908,-772,3076,-250,202,-179,2024-01-24 11:13:16,0.0
-13860,-720,2784,-237,224,-210,2024-01-24 11:13:16,0.0
-13924,-676,2892,-231,260,-212,2024-01-24 11:13:16,0.0
-13916,-808,2824,-163,192,-186,2024-01-24 11:13:16,0.0
-13816,-720,2892,-113,124,-206,2024-01-24 11:13:16,0.0
-13860,-780,2924,-47,170,-230,2024-01-24 11:13:16,0.0
-13896,-676,2928,-2,183,-250,2024-01-24 11:13:16,0.0
-13896,-604,2820,20,113,-271,2024-01-24 11:13:17,0.0
-13780,-644,3040,69,48,-263,2024-01-24 11:13:17,0.0
-13768,-660,2952,49,52,-260,2024-01-24 11:13:17,0.0
-13720,-608,2764,23,101,-232,2024-01-24 11:13:17,0.0
-13644,-544,2896,-68,207,-234,2024-01-24 11:13:17,0.0
-13748,-568,2884,-139,365,-200,2024-01-24 11:13:17,0.0
-13756,-452,2996,-237,447,-191,2024-01-24 11:13:17,0.0
-13920,-460,2948,-401,498,-152,2024-01-24 11:13:17,0.0
-13880,-564,2824,-533,456,-156,2024-01-24 11:13:17,0.0
-13900,-520,3016,-635,375,-163,2024-01-24 11:13:17,0.0
-13800,-688,2980,-631,335,-161,2024-01-24 11:13:17,0.0
-13928,-864,2792,-651,337,-137,2024-01-24 11:13:17,0.0
-13756,-820,2948,-657,303,-158,2024-01-24 11:13:17,0.0
-13868,-976,2956,-602,265,-170,2024-01-24 11:13:17,0.0
-13908,-956,3040,-539,201,-199,2024-01-24 11:13:17,0.0
-13900,-1024,2936,-409,102,-196,2024-01-24 11:13:17,0.0
-13836,-1080,3052,-246,-2,-201,2024-01-24 11:13:17,0.0
-13872,-1092,3060,-66,-5,-212,2024-01-24 11:13:17,0.0
-13816,-1128,3076,111,38,-258,2024-01-24 11:13:17,0.0
-13652,-1000,3004,221,71,-288,2024-01-24 11:13:17,0.0
-13692,-1000,3016,290,102,-307,2024-01-24 11:13:17,0.0
-13840,-844,2988,352,155,-314,2024-01-24 11:13:17,0.0
-13772,-684,2764,337,260,-296,2024-01-24 11:13:17,0.0
-13812,-744,2920,290,325,-264,2024-01-24 11:13:17,0.0
-13860,-544,2924,225,392,-265,2024-01-24 11:13:17,0.0
-13748,-616,3032,142,485,-226,2024-01-24 11:13:17,0.0
-13864,-564,2796,84,469,-205,2024-01-24 11:13:17,0.0
-13952,-656,2816,18,414,-205,2024-01-24 11:13:17,0.0
-13936,-608,2864,-76,341,-202,2024-01-24 11:13:17,0.0
-13840,-636,2776,-112,297,-210,2024-01-24 11:13:17,0.0
-13948,-684,2888,-192,272,-227,2024-01-24 11:13:17,0.0
-13836,-672,2916,-271,227,-222,2024-01-24 11:13:17,0.0
-13740,-772,2908,-329,237,-183,2024-01-24 11:13:17,0.0
-13804,-696,2804,-333,261,-160,2024-01-24 11:13:17,0.0
-13792,-732,2852,-310,247,-146,2024-01-24 11:13:17,0.0
-13760,-752,2872,-285,241,-153,2024-01-24 11:13:17,0.0
-13808,-796,2996,-313,250,-149,2024-01-24 11:13:17,0.0
-13760,-868,2868,-292,303,-147,2024-01-24 11:13:17,0.0
-13752,-880,2756,-294,378,-143,2024-01-24 11:13:17,0.0
-13828,-900,3012,-262,407,-163,2024-01-24 11:13:17,0.0
-13828,-884,2968,-187,432,-184,2024-01-24 11:13:17,0.0
-13748,-736,2912,-152,420,-180,2024-01-24 11:13:17,0.0
-13912,-896,2976,-88,349,-190,2024-01-24 11:13:17,0.0
-13936,-872,2748,-34,357,-165,2024-01-24 11:13:17,
