acceleration_x,acceleration_y,acceleration_z,gyroscope_x,gyroscope_y,gyroscope_z,timestamp,label
-13976,-660,3228,-1028,-92,-35,2024-01-24 11:12:11,0.0
-13892,-788,2988,-1120,-116,-24,2024-01-24 11:12:11,0.0
-13844,-792,2716,-1286,-58,51,2024-01-24 11:12:11,0.0
-14000,-900,2812,-1379,-51,37,2024-01-24 11:12:11,0.0
-13940,-732,2972,-1467,-186,28,2024-01-24 11:12:11,0.0
-13780,-724,3072,-1530,-198,84,2024-01-24 11:12:11,0.0
-13500,-788,2820,-1630,-138,60,2024-01-24 11:12:11,0.0
-13420,-980,2988,-1738,45,-23,2024-01-24 11:12:11,0.0
-13480,-1020,3072,-1761,187,-151,2024-01-24 11:12:11,0.0
-13724,-888,3236,-1766,203,-277,2024-01-24 11:12:11,0.0
-13720,-1012,3068,-1630,214,-342,2024-01-24 11:12:11,0.0
-13660,-1016,3152,-1464,228,-381,2024-01-24 11:12:11,0.0
-13608,-1160,3108,-1247,334,-393,2024-01-24 11:12:11,0.0
-13684,-1268,2984,-955,450,-407,2024-01-24 11:12:11,0.0
-13688,-1356,2900,-701,563,-417,2024-01-24 11:12:11,0.0
-13964,-1264,2912,-450,634,-438,2024-01-24 11:12:11,0.0
-14072,-1264,3068,-162,603,-446,2024-01-24 11:12:11,0.0
-14204,-1236,3332,36,473,-383,2024-01-24 11:12:11,0.0
-14124,-1116,3072,297,227,-289,2024-01-24 11:12:11,0.0
-13796,-1020,2984,418,60,-214,2024-01-24 11:12:11,0.0
-13680,-948,2968,525,82,-118,2024-01-24 11:12:11,0.0
-13584,-1028,2912,445,211,-67,2024-01-24 11:12:11,0.0
-13616,-928,2952,419,459,-14,2024-01-24 11:12:11,0.0
-13696,-744,2948,359,612,70,2024-01-24 11:12:11,0.0
-13732,-624,2936,232,695,149,2024-01-24 11:12:11,0.0
-13676,-652,2852,151,909,143,2024-01-24 11:12:11,0.0
-13780,-932,2852,57,1004,90,2024-01-24 11:12:11,0.0
-13844,-820,2704,-50,1010,6,2024-01-24 11:12:11,0.0
-13960,-828,2924,-224,922,-50,2024-01-24 11:12:11,0.0
-13996,-928,2992,-379,818,-130,2024-01-24 11:12:11,0.0
-14000,-704,3052,-493,705,-163,2024-01-24 11:12:11,0.0
-14044,-724,3048,-543,472,-109,2024-01-24 11:12:11,0.0
-13888,-752,2876,-611,405,-92,2024-01-24 11:12:11,0.0
-13768,-752,2908,-714,330,-52,2024-01-24 11:12:11,0.0
-13916,-712,2896,-795,196,-29,2024-01-24 11:12:11,0.0
-13888,-760,2980,-888,95,-9,2024-01-24 11:12:11,0.0
-13756,-788,2980,-881,31,43,2024-01-24 11:12:11,0.0
-13636,-936,2956,-825,97,29,2024-01-24 11:12:11,0.0
-13592,-1028,2980,-772,177,-28,2024-01-24 11:12:11,0.0
-13600,-1084,2936,-660,208,-108,2024-01-24 11:12:11,0.0
-13648,-1104,2708,-557,276,-138,2024-01-24 11:12:11,0.0
-13636,-996,2844,-476,361,-266,2024-01-24 11:12:11,0.0
-13644,-1044,2968,-425,422,-324,2024-01-24 11:12:11,0.0
-13584,-1048,2660,-381,560,-351,2024-01-24 11:12:11,0.0
-13580,-1004,2676,-440,782,-367,2024-01-24 11:12:11,0.0
-13544,-1016,2708,-513,964,-442,2024-01-24 11:12:11,0.0
-13664,-900,2232,-655,1165,-504,2024-01-24 11:12:11,0.0
-13824,-1060,1788,-862,1272,-492,2024-01-24 11:12:11,0.0
-13852,-1196,1956,-1218,1146,-495,2024-01-24 11:12:11,0.0
-13864,-964,1804,-1532,1066,-407,2024-01-24 11:12:12,0.0
-13868,-904,1604,-1811,962,-422,2024-01-24 11:12:12,0.0
-14000,-1024,1584,-1904,828,-361,2024-01-24 11:12:12,0.0
-14408,-1372,1932,-1851,615,-292,2024-01-24 11:12:12,0.0
-14552,-1784,2016,-1681,436,-277,2024-01-24 11:12:12,0.0
-14156,-1980,1884,-1633,206,-301,2024-01-24 11:12:12,0.0
-14032,-1964,1940,-1509,24,-448,2024-01-24 11:12:12,0.0
-13732,-2156,2028,-1404,-26,-587,2024-01-24 11:12:12,0.0
-13828,-2312,2476,-1104,62,-784,2024-01-24 11:12:12,0.0
-13808,-1888,2604,-741,60,-627,2024-01-24 11:12:12,0.0
-13916,-1816,2488,-211,-170,-574,2024-01-24 11:12:12,0.0
-13572,-1320,2588,198,-380,-437,2024-01-24 11:12:12,0.0
-13312,-1540,2632,455,21,-381,2024-01-24 11:12:12,0.0
-13796,-1016,2452,624,713,-127,2024-01-24 11:12:12,0.0
-14080,-456,1872,745,1398,361,2024-01-24 11:12:12,0.0
-13788,284,1684,574,1685,777,2024-01-24 11:12:12,0.0
-13848,92,932,499,1953,1049,2024-01-24 11:12:12,0.0
-14624,928,608,-231,2033,1254,2024-01-24 11:12:12,0.0
-14740,1168,992,-982,1129,1185,2024-01-24 11:12:12,0.0
-14716,1500,848,-1587,341,1300,2024-01-24 11:12:12,0.0
-13384,1464,1012,-2362,-395,1087,2024-01-24 11:12:12,0.0
-11984,2124,1660,-3182,-79,669,2024-01-24 11:12:12,0.0
-10672,1488,2924,-3669,1581,453,2024-01-24 11:12:12,0.0
-10788,-172,3940,-3476,4511,353,2024-01-24 11:12:12,0.0
-12540,-920,3780,-2785,6606,-21,2024-01-24 11:12:12,0.0
-15868,-2088,4524,-2122,7887,-301,2024-01-24 11:12:12,0.0
-17696,-1988,6104,-1387,4643,-219,2024-01-24 11:12:12,0.0
-17188,-1284,4312,-942,1375,461,2024-01-24 11:12:12,0.0
-14336,-716,2904,-1293,417,706,2024-01-24 11:12:12,0.0
-12796,-20,3208,-1065,293,-59,2024-01-24 11:12:12,0.0
-13604,864,2172,-1569,919,335,2024-01-24 11:12:12,0.0
-13084,2056,1836,-2528,1082,1232,2024-01-24 11:12:12,0.0
-12712,2084,2256,-3035,1869,1353,2024-01-24 11:12:12,0.0
-11524,528,3360,-2631,2816,553,2024-01-24 11:12:12,0.0
-12532,104,1908,-3284,3366,259,2024-01-24 11:12:12,0.0
-13156,-356,1496,-3479,2969,-377,2024-01-24 11:12:12,0.0
-13800,-948,2528,-3085,2242,-980,2024-01-24 11:12:12,0.0
-13796,-1388,2928,-2656,1091,-1635,2024-01-24 11:12:12,0.0
-13900,-1644,3188,-1894,-340,-2048,2024-01-24 11:12:12,0.0
-13920,-1192,2632,-883,-1015,-2235,2024-01-24 11:12:12,0.0
-13832,-760,1612,52,-2106,-2170,2024-01-24 11:12:12,0.0
-14052,660,-176,1256,-2026,-1415,2024-01-24 11:12:12,0.0
-14372,1396,-728,2203,-790,-459,2024-01-24 11:12:12,0.0
-13680,712,-36,2735,512,443,2024-01-24 11:12:12,0.0
-11584,848,-48,2596,1428,1424,2024-01-24 11:12:12,0.0
-8692,1780,-3472,1310,3120,1670,2024-01-24 11:12:12,0.0
-9968,-168,-4704,587,5826,988,2024-01-24 11:12:12,0.0
-13312,824,-4676,795,6803,882,2024-01-24 11:12:12,0.0
-13452,-240,-2172,1252,6701,208,2024-01-24 11:12:12,0.0
-15884,-1208,200,621,5846,293,2024-01-24 11:12:12,0.0
-13332,-3712,1988,-371,3206,-321,2024-01-24 11:12:12,
-13160,-2784,1096,-1167,2343,-1482,2024-01-24 11:12:12,0.0
-13312,-1440,-1356,-2241,2587,-2012,2024-01-24 11:12:12,0.0
-12060,-1748,-1768,-2409,4234,-2797,2024-01-24 11:12:12,0.0
-13024,-3524,-1128,-2044,5192,-2092,2024-01-24 11:12:12,0.0
-13476,-4676,-1316,-2242,5718,-374,2024-01-24 11:12:12,0.0
-12936,-3840,-1360,-2295,5624,1338,2024-01-24 11:12:12,0.0
-10616,-1452,-1796,-2570,6264,2636,2024-01-24 11:12:12,0.0
-9836,136,-272,-2948,6760,3524,2024-01-24 11:12:12,0.0
-9400,664,884,-3333,5891,4932,2024-01-24 11:12:13,0.0
-10348,292,1168,-4331,3196,6804,2024-01-24 11:12:13,0.0
-18948,-3784,1312,-5578,-3060,9897,2024-01-24 11:12:13,0.0
-10840,1240,-440,-6162,-7312,9924,2024-01-24 11:12:13,0.0
-14540,652,676,-5586,-9287,11267,2024-01-24 11:12:13,0.0
-8816,-1352,-480,-4577,-7300,10277,2024-01-24 11:12:13,0.0
-7152,1348,-1112,-2360,-487,7842,2024-01-24 11:12:13,0.0
-4016,2452,5424,-1737,8101,5374,2024-01-24 11:12:13,0.0
-13616,-984,-336,-3675,-1468,9965,2024-01-24 11:12:13,0.0
-12432,-2632,4372,-1077,-6241,4222,2024-01-24 11:12:13,0.0
-11648,-916,740,-708,-12173,3631,2024-01-24 11:12:13,0.0
-15712,2084,-2476,-666,-18521,3691,2024-01-24 11:12:13,0.0
-18136,5904,-2908,-1454,-22959,3553,2024-01-24 11:12:13,0.0
-16768,6796,-796,-2810,-25368,3783,2024-01-24 11:12:13,0.0
-16628,5052,1568,-2811,-26414,3858,2024-01-24 11:12:13,0.0
-15572,3596,2356,-2713,-23933,3532,2024-01-24 11:12:16,0.0
-15652,4200,2576,-3228,-20637,2961,2024-01-24 11:12:16,0.0
-16248,5484,2612,-4253,-15274,2919,2024-01-24 11:12:16,0.0
-16216,5860,4120,-4781,-10378,2978,2024-01-24 11:12:16,0.0
-16808,5596,6312,-4589,-7687,3084,2024-01-24 11:12:16,0.0
-16276,5156,6448,-4514,-6004,3061,2024-01-24 11:12:16,0.0
-16204,4748,6904,-4274,-4141,3120,2024-01-24 11:12:16,0.0
-15860,4784,6912,-3863,-1595,2887,2024-01-24 11:12:16,0.0
-12992,2304,6528,577,2088,-4095,2024-01-24 11:12:16,0.0
-13476,-596,4796,-1024,-5,63,2024-01-24 11:12:16,0.0
-23780,-3252,-1828,-1528,-4123,7937,2024-01-24 11:12:16,0.0
-10608,-2072,2000,-1928,-6150,4573,2024-01-24 11:12:16,0.0
-11032,420,7124,-3065,-4686,1828,2024-01-24 11:12:16,0.0
-32768,-10436,2552,-1166,-3752,8622,2024-01-24 11:12:16,0.0
-4964,6488,5276,-343,-6935,3220,2024-01-24 11:12:16,0.0
-11908,3152,7804,344,-5014,859,2024-01-24 11:12:16,0.0
-6644,-540,1128,133,2781,-762,2024-01-24 11:12:16,0.0
-12456,-1456,6428,-521,6221,-1706,2024-01-24 11:12:16,0.0
-12052,-1236,7448,-4,3814,-2251,2024-01-24 11:12:16,0.0
-19112,-468,9464,429,3430,-2763,2024-01-24 11:12:16,0.0
-9728,-740,2288,376,2326,-1772,2024-01-24 11:12:16,0.0
-18840,-620,8704,-450,2135,-716,2024-01-24 11:12:16,0.0
-14940,-708,4324,232,4439,-2757,2024-01-24 11:12:16,0.0
-15604,-556,6016,162,1656,-314,2024-01-24 11:12:16,0.0
-14424,-216,5568,-408,237,-126,2024-01-24 11:12:17,0.0
-12708,80,4812,-106,443,-489,2024-01-24 11:12:17,0.0
-13476,16,4520,-399,1269,-483,2024-01-24 11:12:17,0.0
-14748,-456,4800,-721,2563,-908,2024-01-24 11:12:17,0.0
-14392,-124,5812,-397,549,-118,2024-01-24 11:12:17,0.0
-13840,-96,4232,-694,-23,-225,2024-01-24 11:12:17,0.0
-13152,392,4344,-823,598,-502,2024-01-24 11:12:17,0.0
14288,-4660,-2488,-2886,2074,-7477,2024-01-24 11:12:17,0.0
-20772,-2804,9048,838,6415,-4129,2024-01-24 11:12:17,0.0
-15188,-1540,4012,5,2884,-1874,2024-01-24 11:12:17,0.0
-12688,-1228,3540,76,2336,-3224,2024-01-24 11:12:17,0.0
-12444,720,5856,747,2976,-7266,2024-01-24 11:12:17,0.0
-9984,-1384,5512,1306,3529,-7845,2024-01-24 11:12:17,0.0
-18404,-1656,3276,946,-479,-7682,2024-01-24 11:12:17,0.0
-16556,-3328,3504,521,-487,-3106,2024-01-24 11:12:17,0.0
-13504,-1852,3172,-1428,-37,-1715,2024-01-24 11:12:17,0.0
-13224,-1776,4160,-731,-430,-2033,2024-01-24 11:12:17,0.0
-15988,340,5784,1802,-2000,2143,2024-01-24 11:12:17,0.0
-16464,-2792,3424,752,-1332,3799,2024-01-24 11:12:17,0.0
-14336,-2104,4516,-1245,317,2560,2024-01-24 11:12:17,0.0
-13164,-2656,4960,-19,-1289,40,2024-01-24 11:12:17,0.0
-12428,-864,3708,1267,1575,2129,2024-01-24 11:12:17,0.0
-12604,-908,4712,190,1371,187,2024-01-24 11:12:17,0.0
-12860,-804,4060,341,861,-343,2024-01-24 11:12:17,0.0
-12444,-1216,5492,622,-1112,262,2024-01-24 11:12:17,0.0
-12260,-1652,4428,799,-3183,-28,2024-01-24 11:12:17,0.0
-14356,-1436,4316,226,-3862,-70,2024-01-24 11:12:17,0.0
-14480,-1744,3840,100,-1994,-19,2024-01-24 11:12:17,0.0
-15688,-908,4580,-83,125,859,2024-01-24 11:12:17,0.0
-13776,-1536,5624,315,389,1102,2024-01-24 11:12:17,0.0
-852,4296,4092,1341,-2790,7152,2024-01-24 11:12:17,0.0
-13656,-1356,6164,249,-5305,4940,2024-01-24 11:12:17,0.0
-15492,-1284,4408,812,-1374,1449,2024-01-24 11:12:17,0.0
-13984,-160,3676,-458,1796,725,2024-01-24 11:12:17,0.0
-13296,-296,4984,-1495,2771,1905,2024-01-24 11:12:17,0.0
-13688,-196,4828,-1564,4009,2838,2024-01-24 11:12:17,0.0
-14304,-408,6312,-809,3174,4278,2024-01-24 11:12:17,0.0
-13456,-1248,4464,732,3569,3987,2024-01-24 11:12:17,0.0
-15512,-1416,4000,170,5375,1107,2024-01-24 11:12:17,0.0
-15904,-1696,4192,-391,5422,-227,2024-01-24 11:12:17,0.0
-13864,-1328,5044,-82,4636,-1049,2024-01-24 11:12:17,0.0
-15912,-1020,3664,-345,2619,-715,2024-01-24 11:12:17,0.0
-14844,-172,4680,300,-27,-1746,2024-01-24 11:12:17,0.0
-14916,-404,5632,1381,-2726,-2500,2024-01-24 11:12:17,0.0
-14336,-60,4372,1829,-3937,-2877,2024-01-24 11:12:17,0.0
-13576,-240,3728,1410,-3894,-2463,2024-01-24 11:12:17,0.0
-15712,320,5004,621,-3478,-989,2024-01-24 11:12:17,0.0
-15136,-1304,6472,856,-5677,154,2024-01-24 11:12:17,0.0
-12268,-456,5084,485,-5153,802,2024-01-24 11:12:17,0.0
-13140,-652,4912,843,-4417,614,2024-01-24 11:12:17,0.0
-11388,16,4780,153,-5359,-1164,2024-01-24 11:12:17,0.0
-11780,-96,4912,-724,-3776,-747,2024-01-24 11:12:17,0.0
-11888,-524,4544,-514,-1876,-660,2024-01-24 11:12:17,
-12932,-232,5040,-709,-180,-661,2024-01-24 11:12:17,0.0
-13284,-612,5476,-567,735,39,2024-01-24 11:12:17,0.0
-12824,-804,5532,-414,1429,104,2024-01-24 11:12:17,0.0
-13896,-776,6164,-308,518,102,2024-01-24 11:12:17,0.0
-13852,-776,6104,-231,-481,246,2024-01-24 11:12:17,0.0
-12756,-848,5516,-183,223,-4,2024-01-24 11:12:17,0.0
-13516,-624,5768,-20,1106,381,2024-01-24 11:12:18,0.0
-12892,-908,5300,607,3344,1356,2024-01-24 11:12:18,0.0
-14368,-404,6548,-195,985,-402,2024-01-24 11:12:18,0.0
-13920,-472,5880,-169,-888,-389,2024-01-24 11:12:18,0.0
-13688,-460,5556,12,-1069,-556,2024-01-24 11:12:18,0.0
-13668,-104,5224,33,-193,-197,2024-01-24 11:12:18,0.0
-14192,-648,5640,-70,317,-31,2024-01-24 11:12:18,0.0
-13504,-208,5496,-108,1051,-332,2024-01-24 11:12:18,0.0
-13600,-476,5088,-12,451,-332,2024-01-24 11:12:18,0.0
-13660,-480,5156,23,410,-30,2024-01-24 11:12:18,0.0
-13664,-484,5568,-115,575,-245,2024-01-24 11:12:18,0.0
-12076,-684,5860,-33,604,-554,2024-01-24 11:12:18,0.0
-11536,-252,6992,192,-1743,-395,2024-01-24 11:12:18,0.0
-13936,-724,5340,24,-1038,-840,2024-01-24 11:12:18,0.0
-13472,-660,5284,-108,-554,-707,2024-01-24 11:12:18,0.0
-13712,-508,5676,-26,-126,-382,2024-01-24 11:12:18,0.0
-15060,-504,5236,276,902,-30,2024-01-24 11:12:18,0.0
-12984,-640,6344,276,-1834,-114,2024-01-24 11:12:18,0.0
-13492,-384,5644,387,-2166,-717,2024-01-24 11:12:18,0.0
-8460,-856,2512,-332,894,-3132,2024-01-24 11:12:18,0.0
-20364,216,9136,178,-2998,-1320,2024-01-24 11:12:18,0.0
-15444,-260,6080,197,-7153,439,2024-01-24 11:12:18,0.0
-11396,-2880,5096,933,-8277,564,2024-01-24 11:12:18,0.0
-15456,-2012,5224,-413,-8126,-914,2024-01-24 11:12:18,0.0
-16908,-708,11528,220,-17557,-581,2024-01-24 11:12:18,0.0
-14840,-216,9088,323,-24926,-367,2024-01-24 11:12:18,0.0
-13092,-448,7916,198,-24036,-1900,2024-01-24 11:12:18,0.0
-11552,-400,8868,300,-22567,-2507,2024-01-24 11:12:18,0.0
-12620,-364,9172,-32,-23132,-2670,2024-01-24 11:12:18,0.0
-14384,-640,10904,162,-25755,-2118,2024-01-24 11:12:18,0.0
-12044,-1716,12556,120,-26566,-909,2024-01-24 11:12:18,0.0
-10108,-1384,11740,962,-25896,-142,2024-01-24 11:12:18,0.0
-9676,-1100,11828,1617,-22822,574,2024-01-24 11:12:18,0.0
-9140,-1564,12084,1080,-21287,451,2024-01-24 11:12:18,0.0
-8132,-1840,14220,260,-21960,-140,2024-01-24 11:12:18,0.0
-8336,-848,12620,-25,-20178,-119,2024-01-24 11:12:18,0.0
-8864,632,12368,-342,-15256,827,2024-01-24 11:12:18,0.0
-6720,-8,15032,-47,-14202,976,2024-01-24 11:12:18,0.0
-5644,-144,15440,249,-14611,880,2024-01-24 11:12:18,0.0
-5920,-604,15032,749,-14092,416,2024-01-24 11:12:18,0.0
-5708,-1048,14776,484,-13762,-240,2024-01-24 11:12:18,0.0
-3884,-944,12336,10,-12803,-62,2024-01-24 11:12:18,0.0
-4396,-840,12680,-198,-8214,-364,2024-01-24 11:12:18,0.0
-4216,-64,10336,-526,372,-367,2024-01-24 11:12:18,0.0
-4736,-372,10392,-245,10426,58,2024-01-24 11:12:18,0.0
-5564,-80,12068,442,20015,412,2024-01-24 11:12:18,0.0
-6664,-376,11356,677,27638,-114,2024-01-24 11:12:18,0.0
-8180,-1052,10524,-275,32767,-561,2024-01-24 11:12:18,0.0
-10288,-744,15796,87,32767,-1258,2024-01-24 11:12:18,0.0
-12236,-904,14088,48,30648,-1223,2024-01-24 11:12:18,0.0
-12508,-1212,13964,711,23099,-1436,2024-01-24 11:12:18,0.0
-11828,-1328,10956,1039,17682,-1365,2024-01-24 11:12:18,0.0
-10084,-1116,9928,1547,12737,-1469,2024-01-24 11:12:18,0.0
-9336,-792,9000,1824,9893,-1920,2024-01-24 11:12:18,0.0
-7904,-1160,9516,2207,9979,-2521,2024-01-24 11:12:18,0.0
-7800,-1136,10576,2585,11126,-3006,2024-01-24 11:12:18,0.0
-7940,-1560,10168,2496,12578,-2687,2024-01-24 11:12:18,0.0
-8352,-1252,9264,1844,14055,-2379,2024-01-24 11:12:18,0.0
-8896,-1456,9888,1494,15972,-2565,2024-01-24 11:12:18,0.0
-10196,-968,10292,1876,18924,-1682,2024-01-24 11:12:18,0.0
-12124,136,10716,2104,24877,-864,2024-01-24 11:12:19,0.0
-13096,832,10016,2327,29143,18,2024-01-24 11:12:19,0.0
-14172,2144,10076,1819,28331,120,2024-01-24 11:12:19,0.0
-14776,1576,9964,1341,22926,-480,2024-01-24 11:12:19,0.0
-14276,900,9400,1769,20680,-664,2024-01-24 11:12:19,0.0
-16176,-472,10592,2684,16941,-76,2024-01-24 11:12:19,0.0
-17128,-1796,8628,2427,8673,-723,2024-01-24 11:12:19,0.0
-14664,-2500,1964,612,9196,-2170,2024-01-24 11:12:19,0.0
-15192,-804,3836,-84,11576,-2068,2024-01-24 11:12:19,0.0
-14976,-8,4068,-80,13086,-1789,2024-01-24 11:12:19,0.0
-17544,468,5828,403,11161,-819,2024-01-24 11:12:19,0.0
-15996,-284,5120,900,7851,75,2024-01-24 11:12:19,0.0
-19920,-424,12892,1116,7333,564,2024-01-24 11:12:19,0.0
-14788,-1404,3676,1067,6106,686,2024-01-24 11:12:19,0.0
-13348,-1728,1788,714,5431,150,2024-01-24 11:12:19,0.0
-13024,-1792,1228,389,5473,-453,2024-01-24 11:12:19,0.0
-13072,-1468,1184,279,5965,-791,2024-01-24 11:12:19,0.0
-13428,-1328,1632,474,6443,-628,2024-01-24 11:12:19,0.0
-13528,-1168,1788,745,6464,-258,2024-01-24 11:12:19,0.0
-13888,-852,1404,913,5947,88,2024-01-24 11:12:19,0.0
-13996,-736,1336,1009,5368,173,2024-01-24 11:12:19,0.0
-14636,-928,884,1017,4643,66,2024-01-24 11:12:19,0.0
-14432,-1100,724,1070,3830,-53,2024-01-24 11:12:19,0.0
-14444,-1088,556,1163,3176,-89,2024-01-24 11:12:19,0.0
-14048,-936,616,1196,2539,87,2024-01-24 11:12:19,0.0
-13920,-552,368,995,2269,405,2024-01-24 11:12:19,0.0
-13884,-588,-152,549,2392,463,2024-01-24 11:12:19,0.0
-13704,-128,-368,56,3150,139,2024-01-24 11:12:19,0.0
-14000,96,-796,-229,3332,-169,2024-01-24 11:12:19,0.0
-13984,72,-772,-447,2963,-364,2024-01-24 11:12:19,0.0
-14176,-212,-804,-665,2490,-397,2024-01-24 11:12:19,0.0
-14280,-236,-788,-582,2347,-38,2024-01-24 11:12:19,0.0
-14340,-640,-884,-424,2207,371,2024-01-24 11:12:19,0.0
-13828,-844,-1132,-404,2373,546,2024-01-24 11:12:19,
-13520,-1236,-816,-342,2569,303,2024-01-24 11:12:19,0.0
-13636,-1416,-756,-215,2562,-131,2024-01-24 11:12:19,0.0
-13728,-1348,-1092,-167,1892,-598,2024-01-24 11:12:19,0.0
-13544,-780,-1616,-221,1787,-789,2024-01-24 11:12:19,0.0
-13704,-360,-1688,-248,1881,-707,2024-01-24 11:12:19,0.0
-13792,-196,-1752,-231,1917,-395,2024-01-24 11:12:19,0.0
-13900,-544,-1652,-45,1977,-53,2024-01-24 11:12:19,0.0
-13936,-968,-1504,128,1839,86,2024-01-24 11:12:19,0.0
-13896,-1280,-1444,311,1543,104,2024-01-24 11:12:19,0.0
-13672,-1276,-1612,434,1166,-7,2024-01-24 11:12:19,0.0
-13508,-1372,-1872,391,631,-175,2024-01-24 11:12:19,0.0
-13216,-1112,-1768,298,240,-333,2024-01-24 11:12:19,0.0
-13236,-796,-2004,246,188,-388,2024-01-24 11:12:19,0.0
-13368,-576,-2100,192,274,-345,2024-01-24 11:12:19,0.0
-13224,-664,-2268,-27,624,-475,2024-01-24 11:12:19,0.0
-13584,-484,-1832,-143,866,-664,2024-01-24 11:12:19,0.0
-13836,-636,-1824,-45,874,-648,2024-01-24 11:12:19,0.0
-14028,-748,-1864,32,590,-480,2024-01-24 11:12:19,0.0
-13884,-860,-1692,87,187,-262,2024-01-24 11:12:19,0.0
-13888,-680,-1736,60,-19,-32,2024-01-24 11:12:19,0.0
-13600,-708,-2032,-68,-209,72,2024-01-24 11:12:19,0.0
-13280,-920,-2304,-172,47,-20,2024-01-24 11:12:19,0.0
-13252,-1080,-2144,-315,312,-315,2024-01-24 11:12:19,0.0
-13548,-900,-1828,-443,219,-520,2024-01-24 11:12:19,0.0
-13680,-696,-1872,-484,41,-479,2024-01-24 11:12:19,0.0
-13872,-768,-1764,-409,-6,-333,2024-01-24 11:12:19,0.0
-13656,-908,-1884,-338,-50,-70,2024-01-24 11:12:20,0.0
-13412,-1120,-1776,-149,-27,20,2024-01-24 11:12:20,0.0
-13132,-1384,-1916,-52,103,-28,2024-01-24 11:12:20,0.0
-13140,-1300,-1980,-96,274,-177,2024-01-24 11:12:20,0.0
-13436,-1120,-1868,-96,285,-306,2024-01-24 11:12:20,0.0
-13724,-796,-1864,-151,174,-306,2024-01-24 11:12:20,0.0
-13720,-688,-1928,-157,42,-267,2024-01-24 11:12:20,0.0
-13508,-676,-2132,-223,53,-211,2024-01-24 11:12:20,0.0
-13324,-896,-1888,-264,37,-213,2024-01-24 11:12:20,0.0
-13236,-1084,-1768,-238,31,-182,2024-01-24 11:12:20,0.0
-13252,-1084,-1920,-252,100,-208,2024-01-24 11:12:20,0.0
-13368,-1024,-2000,-300,184,-263,2024-01-24 11:12:20,0.0
-13476,-840,-1948,-323,260,-266,2024-01-24 11:12:20,0.0
-13372,-684,-2012,-376,286,-254,2024-01-24 11:12:20,0.0
-13504,-680,-1864,-400,185,-194,2024-01-24 11:12:20,0.0
-13468,-684,-1884,-343,86,-130,2024-01-24 11:12:20,0.0
-13400,-940,-1988,-296,93,-154,2024-01-24 11:12:20,0.0
-13344,-960,-1932,-295,157,-209,2024-01-24 11:12:20,0.0
-13444,-916,-1996,-252,198,-175,2024-01-24 11:12:20,0.0
-13504,-824,-2024,-230,151,-160,2024-01-24 11:12:20,0.0
-13436,-876,-1972,-244,134,-203,2024-01-24 11:12:20,0.0
-13368,-836,-2108,-294,154,-301,2024-01-24 11:12:20,0.0
-13500,-772,-1904,-301,124,-335,2024-01-24 11:12:20,0.0
-13540,-632,-1812,-323,-76,-297,2024-01-24 11:12:20,0.0
-13508,-632,-1844,-293,-259,-207,2024-01-24 11:12:20,0.0
-13532,-1008,-1844,-197,-334,-192,2024-01-24 11:12:20,0.0
-13400,-1064,-1796,-43,-284,-141,2024-01-24 11:12:20,0.0
-13544,-1136,-1728,93,-231,30,2024-01-24 11:12:20,0.0
-13364,-968,-1504,194,-198,100,2024-01-24 11:12:20,0.0
-13376,-924,-1636,219,-128,78,2024-01-24 11:12:20,0.0
-13268,-932,-1740,197,-11,-14,2024-01-24 11:12:20,0.0
-13288,-1024,-1900,104,100,-172,2024-01-24 11:12:20,0.0
-13552,-856,-1876,-25,246,-337,2024-01-24 11:12:20,0.0
-13504,-536,-1784,-166,191,-369,2024-01-24 11:12:20,0.0
-13536,-552,-1944,-241,141,-351,2024-01-24 11:12:20,0.0
-13492,-672,-1876,-300,39,-341,2024-01-24 11:12:20,0.0
-13728,-976,-1532,-372,-76,-347,2024-01-24 11:12:20,0.0
-13724,-892,-1652,-404,-162,-336,2024-01-24 11:12:20,0.0
-13628,-944,-1568,-415,-106,-284,2024-01-24 11:12:20,0.0
-13512,-964,-1672,-389,-45,-290,2024-01-24 11:12:20,0.0
-13264,-1028,-1976,-351,149,-287,2024-01-24 11:12:20,0.0
-13416,-832,-1696,-193,216,-216,2024-01-24 11:12:20,0.0
-13296,-848,-1440,-38,430,-173,2024-01-24 11:12:20,0.0
-13244,-936,-1432,342,684,-72,2024-01-24 11:12:20,0.0
-12944,-1272,-1104,754,1015,-16,2024-01-24 11:12:20,0.0
-12844,-1240,-1644,692,1111,-194,2024-01-24 11:12:20,0.0
-13112,-1064,-2076,456,1319,-268,2024-01-24 11:12:20,0.0
-13580,-992,-1892,168,1345,-109,2024-01-24 11:12:20,0.0
-13844,-1268,-2044,33,1428,-97,2024-01-24 11:12:20,0.0
-13896,-1016,-2004,-106,1512,-167,2024-01-24 11:12:20,0.0
-14052,-836,-1892,-260,1491,-116,2024-01-24 11:12:20,0.0
-13956,-524,-1928,-356,1141,-51,2024-01-24 11:12:20,0.0
-13904,-676,-2024,-444,650,32,2024-01-24 11:12:20,0.0
-13712,-888,-2076,-504,64,104,2024-01-24 11:12:20,0.0
-13224,-1116,-2064,-563,-94,-1,2024-01-24 11:12:20,0.0
-13252,-1124,-1964,-561,-65,-141,2024-01-24 11:12:20,0.0
-13484,-1060,-1996,-499,-47,-233,2024-01-24 11:12:20,0.0
-13200,-1112,-2236,-541,-37,-253,2024-01-24 11:12:20,0.0
-13240,-804,-2332,-474,133,-112,2024-01-24 11:12:20,0.0
-13260,-872,-2292,-430,104,8,2024-01-24 11:12:21,0.0
-13416,-788,-2084,-459,273,10,2024-01-24 11:12:21,0.0
-13572,-1024,-2500,-522,516,-54,2024-01-24 11:12:21,0.0
-13440,-772,-2716,-710,1150,-62,2024-01-24 11:12:21,0.0
-13432,-504,-2812,-853,1781,-183,2024-01-24 11:12:21,0.0
-13356,-508,-2248,-801,1745,-361,2024-01-24 11:12:21,0.0
-13468,-700,-1956,-627,1358,-374,2024-01-24 11:12:21,0.0
-13240,-868,-2056,-385,957,-247,2024-01-24 11:12:21,0.0
-13228,-868,-2248,-224,811,-82,2024-01-24 11:12:21,0.0
-13192,-808,-2412,-132,843,59,2024-01-24 11:12:21,0.0
-13276,-824,-2280,4,902,93,2024-01-24 11:12:21,0.0
-13164,-876,-1852,136,850,68,2024-01-24 11:12:21,0.0
-13200,-844,-2036,220,648,31,2024-01-24 11:12:21,0.0
-13216,-764,-2164,329,229,-9,2024-01-24 11:12:21,0.0
-13004,-676,-2228,419,-40,-105,2024-01-24 11:12:21,
