acceleration_x,acceleration_y,acceleration_z,gyroscope_x,gyroscope_y,gyroscope_z,timestamp,label
-13424,88,-1668,560,337,-715,2024-01-24 10:46:09,0.0
-13704,160,-1776,596,213,-753,2024-01-24 10:46:09,0.0
-13712,60,-2016,492,25,-735,2024-01-24 10:46:09,0.0
-13504,88,-2176,380,75,-629,2024-01-24 10:46:09,0.0
-13436,16,-2168,206,163,-494,2024-01-24 10:46:09,0.0
-13304,140,-1988,134,147,-335,2024-01-24 10:46:09,0.0
-13364,208,-1980,29,200,-216,2024-01-24 10:46:09,0.0
-13336,324,-1744,-46,223,-150,2024-01-24 10:46:09,0.0
-13376,240,-1808,-139,249,-116,2024-01-24 10:46:09,0.0
-13432,204,-1752,-260,359,-76,2024-01-24 10:46:09,0.0
-13420,280,-1752,-297,396,-99,2024-01-24 10:46:09,0.0
-13468,292,-1660,-355,348,-165,2024-01-24 10:46:09,0.0
-13512,348,-1760,-377,297,-274,2024-01-24 10:46:09,0.0
-13432,344,-1740,-456,298,-382,2024-01-24 10:46:09,0.0
-13568,332,-1940,-485,363,-432,2024-01-24 10:46:09,0.0
-13696,252,-2076,-525,203,-421,2024-01-24 10:46:10,0.0
-13424,220,-2208,-609,176,-420,2024-01-24 10:46:10,0.0
-13440,268,-2236,-708,306,-418,2024-01-24 10:46:10,0.0
-13388,296,-2140,-724,381,-421,2024-01-24 10:46:10,0.0
-13488,328,-2052,-699,290,-433,2024-01-24 10:46:10,0.0
-13352,280,-1992,-679,330,-445,2024-01-24 10:46:10,0.0
-13416,188,-2036,-629,370,-419,2024-01-24 10:46:10,0.0
-13448,132,-1992,-606,327,-360,2024-01-24 10:46:10,0.0
-13336,64,-1860,-553,299,-310,2024-01-24 10:46:10,0.0
-13436,24,-1748,-509,336,-257,2024-01-24 10:46:10,0.0
-13432,124,-1852,-468,285,-224,2024-01-24 10:46:10,0.0
-13452,296,-1860,-452,306,-221,2024-01-24 10:46:10,0.0
-13408,224,-2024,-417,311,-239,2024-01-24 10:46:10,0.0
-13480,304,-1896,-452,256,-224,2024-01-24 10:46:10,0.0
-13636,248,-1832,-426,241,-219,2024-01-24 10:46:10,0.0
-13592,228,-1852,-348,199,-223,2024-01-24 10:46:10,0.0
-13520,220,-1824,-340,116,-198,2024-01-24 10:46:10,0.0
-13520,192,-1928,-338,93,-158,2024-01-24 10:46:10,0.0
-13380,228,-1760,-275,83,-179,2024-01-24 10:46:10,0.0
-13400,80,-1712,-181,76,-177,2024-01-24 10:46:10,0.0
-13460,52,-1628,-128,93,-198,2024-01-24 10:46:10,0.0
-13352,0,-1740,-93,157,-204,2024-01-24 10:46:10,0.0
-13524,168,-1684,-81,212,-254,2024-01-24 10:46:10,0.0
-13636,212,-1668,-30,63,-298,2024-01-24 10:46:10,0.0
-13632,100,-1664,6,-70,-371,2024-01-24 10:46:10,0.0
-13720,44,-1900,35,-210,-390,2024-01-24 10:46:10,0.0
-13508,-64,-1816,53,-245,-380,2024-01-24 10:46:10,0.0
-13472,-4,-1768,-5,-200,-329,2024-01-24 10:46:10,0.0
-13448,76,-1656,-46,-114,-287,2024-01-24 10:46:10,0.0
-13540,128,-1736,-51,-140,-254,2024-01-24 10:46:10,0.0
-13512,216,-1564,-4,-108,-194,2024-01-24 10:46:10,0.0
-13408,92,-1556,18,-87,-163,2024-01-24 10:46:10,0.0
-13232,-12,-1748,17,-24,-190,2024-01-24 10:46:10,0.0
-13320,-96,-1636,58,23,-201,2024-01-24 10:46:10,0.0
-13408,-76,-1600,135,164,-204,2024-01-24 10:46:10,0.0
-13440,4,-1708,84,291,-229,2024-01-24 10:46:10,0.0
-13592,-32,-1688,65,305,-290,2024-01-24 10:46:10,0.0
-13624,208,-1888,75,240,-334,2024-01-24 10:46:10,0.0
-13524,152,-1780,127,211,-317,2024-01-24 10:46:10,0.0
-13416,24,-1936,105,238,-322,2024-01-24 10:46:10,0.0
-13496,56,-1972,81,282,-250,2024-01-24 10:46:10,0.0
-13472,-44,-1984,74,184,-232,2024-01-24 10:46:10,0.0
-13440,-92,-1848,88,115,-144,2024-01-24 10:46:10,0.0
-13500,-32,-1700,79,131,-113,2024-01-24 10:46:10,0.0
-13540,-184,-1636,68,86,-105,2024-01-24 10:46:10,0.0
-13488,-32,-1752,82,65,-88,2024-01-24 10:46:10,0.0
-13540,92,-1640,114,75,-126,2024-01-24 10:46:10,0.0
-13660,-4,-1684,98,97,-150,2024-01-24 10:46:10,0.0
-13584,92,-1596,77,64,-99,2024-01-24 10:46:10,0.0
-13440,56,-1492,28,60,-107,2024-01-24 10:46:10,0.0
-13412,72,-1620,-11,161,-163,2024-01-24 10:46:10,0.0
-13512,72,-1616,-68,204,-244,2024-01-24 10:46:10,0.0
-13492,48,-1724,-146,212,-301,2024-01-24 10:46:10,0.0
-13404,44,-1964,-257,270,-328,2024-01-24 10:46:10,0.0
-13528,20,-1864,-298,335,-336,2024-01-24 10:46:10,0.0
-13388,76,-1932,-366,331,-291,2024-01-24 10:46:10,0.0
-13400,252,-1856,-400,418,-265,2024-01-24 10:46:10,0.0
-13356,160,-1868,-426,418,-203,2024-01-24 10:46:10,0.0
-13532,172,-1592,-405,341,-214,2024-01-24 10:46:11,0.0
-13484,84,-1684,-453,378,-174,2024-01-24 10:46:11,0.0
-13496,132,-1648,-495,409,-219,2024-01-24 10:46:11,0.0
-13480,204,-1672,-495,404,-269,2024-01-24 10:46:11,0.0
-13512,280,-1600,-513,439,-338,2024-01-24 10:46:11,0.0
-13616,100,-1456,-476,242,-380,2024-01-24 10:46:11,0.0
-13524,104,-1664,-469,215,-379,2024-01-24 10:46:11,0.0
-13452,100,-1736,-425,222,-334,2024-01-24 10:46:11,0.0
-13424,64,-1760,-371,172,-264,2024-01-24 10:46:11,0.0
-13492,-48,-1696,-345,48,-217,2024-01-24 10:46:11,0.0
-13344,-144,-1448,-370,145,-203,2024-01-24 10:46:11,0.0
-13436,-156,-1620,-339,199,-205,2024-01-24 10:46:11,0.0
-13540,-44,-1576,-306,138,-207,2024-01-24 10:46:11,0.0
-13488,-92,-1580,-317,57,-239,2024-01-24 10:46:11,0.0
-13372,-4,-1560,-276,129,-256,2024-01-24 10:46:11,0.0
-13488,-36,-1660,-272,147,-283,2024-01-24 10:46:11,0.0
-13492,-96,-1560,-248,114,-301,2024-01-24 10:46:11,0.0
-13492,-148,-1688,-238,108,-244,2024-01-24 10:46:11,0.0
-13672,-36,-1608,-229,143,-222,2024-01-24 10:46:11,0.0
-13540,-48,-1524,-203,79,-200,2024-01-24 10:46:11,0.0
-13472,-112,-1596,-134,110,-189,2024-01-24 10:46:11,0.0
-13552,-120,-1488,-107,136,-197,2024-01-24 10:46:11,0.0
-13460,-196,-1404,-69,158,-200,2024-01-24 10:46:11,0.0
-13420,-44,-1556,-8,192,-200,2024-01-24 10:46:11,0.0
-13472,8,-1736,13,223,-191,2024-01-24 10:46:11,0.0
-13500,12,-1636,-24,301,-175,2024-01-24 10:46:11,0.0
-13596,40,-1484,-34,278,-160,2024-01-24 10:46:11,
-13528,20,-1672,-110,392,-177,2024-01-24 10:46:11,0.0
-13556,-32,-1684,-124,376,-213,2024-01-24 10:46:11,0.0
-13600,0,-1640,-147,282,-189,2024-01-24 10:46:11,0.0
-13536,12,-1720,-182,299,-206,2024-01-24 10:46:11,0.0
-13452,72,-1672,-230,347,-229,2024-01-24 10:46:11,0.0
-13464,-20,-1672,-211,277,-252,2024-01-24 10:46:11,0.0
-13424,0,-1680,-224,289,-252,2024-01-24 10:46:11,0.0
-13416,-48,-1748,-239,330,-219,2024-01-24 10:46:11,0.0
-13504,44,-1740,-218,410,-213,2024-01-24 10:46:11,0.0
-13484,-104,-1736,-239,453,-233,2024-01-24 10:46:11,0.0
-13472,-56,-1732,-205,469,-230,2024-01-24 10:46:11,0.0
-13480,-104,-1848,-233,508,-247,2024-01-24 10:46:11,0.0
-13468,-120,-1740,-209,386,-263,2024-01-24 10:46:11,0.0
-13408,-132,-1708,-193,381,-262,2024-01-24 10:46:11,0.0
-13484,-48,-1784,-210,430,-220,2024-01-24 10:46:11,0.0
-13492,-164,-1708,-197,440,-167,2024-01-24 10:46:11,0.0
-13488,-44,-1712,-194,371,-191,2024-01-24 10:46:11,0.0
-13620,-84,-1740,-215,323,-180,2024-01-24 10:46:11,0.0
-13536,-56,-1712,-179,264,-212,2024-01-24 10:46:11,0.0
-13376,-56,-1816,-181,257,-219,2024-01-24 10:46:11,0.0
-13532,16,-1800,-156,248,-237,2024-01-24 10:46:11,0.0
-13448,-56,-1816,-134,283,-240,2024-01-24 10:46:11,0.0
-13508,-92,-1868,-131,259,-214,2024-01-24 10:46:11,0.0
-13368,-160,-1904,-134,247,-229,2024-01-24 10:46:11,0.0
-13504,-148,-1760,-127,263,-219,2024-01-24 10:46:11,0.0
-13432,-216,-1976,-139,279,-258,2024-01-24 10:46:11,0.0
-13460,-188,-1928,-152,355,-271,2024-01-24 10:46:11,0.0
-13400,-220,-2004,-197,406,-320,2024-01-24 10:46:11,0.0
-13532,-312,-1808,-239,389,-350,2024-01-24 10:46:11,0.0
-13284,-304,-2056,-274,480,-427,2024-01-24 10:46:11,0.0
-13216,-428,-2164,-377,638,-440,2024-01-24 10:46:11,0.0
-13496,-476,-2172,-488,637,-404,2024-01-24 10:46:11,0.0
-13444,-308,-2020,-532,585,-338,2024-01-24 10:46:12,0.0
-13376,-436,-1932,-521,497,-330,2024-01-24 10:46:12,0.0
-13504,-524,-1940,-412,437,-313,2024-01-24 10:46:12,0.0
-13360,-508,-1920,-332,419,-334,2024-01-24 10:46:12,0.0
-13464,-476,-1792,-202,351,-336,2024-01-24 10:46:12,0.0
-13404,-488,-1852,-25,341,-336,2024-01-24 10:46:12,0.0
-13472,-308,-1772,71,425,-318,2024-01-24 10:46:12,0.0
-13504,-424,-1716,284,553,-329,2024-01-24 10:46:12,0.0
-13576,-224,-1828,448,628,-221,2024-01-24 10:46:12,0.0
-13680,92,-1848,710,619,-216,2024-01-24 10:46:12,0.0
-13656,192,-1912,917,421,-174,2024-01-24 10:46:12,0.0
-13476,100,-1936,1022,332,-129,2024-01-24 10:46:12,0.0
-13304,244,-1976,1015,333,-112,2024-01-24 10:46:12,0.0
-13304,484,-2120,973,276,-93,2024-01-24 10:46:12,0.0
-13408,728,-2168,801,269,-80,2024-01-24 10:46:12,0.0
-13372,836,-2044,599,357,-77,2024-01-24 10:46:12,0.0
-13248,816,-2240,359,433,-90,2024-01-24 10:46:12,0.0
-13336,916,-2340,146,421,-116,2024-01-24 10:46:12,0.0
-13484,992,-2512,-148,113,-146,2024-01-24 10:46:12,0.0
-13488,764,-2152,-358,-57,-149,2024-01-24 10:46:12,0.0
-13404,724,-2404,-635,-175,-174,2024-01-24 10:46:12,0.0
-13516,736,-2228,-742,-353,-174,2024-01-24 10:46:12,0.0
-13468,648,-2376,-983,-662,-140,2024-01-24 10:46:12,0.0
-13388,668,-1960,-1316,-610,-20,2024-01-24 10:46:12,0.0
-13348,588,-2032,-1485,-399,45,2024-01-24 10:46:12,0.0
-13532,500,-2168,-1647,-334,149,2024-01-24 10:46:12,0.0
-13620,344,-2300,-1752,-297,260,2024-01-24 10:46:12,0.0
-13536,36,-2112,-1837,-263,357,2024-01-24 10:46:12,0.0
-13460,-120,-2220,-1860,-34,409,2024-01-24 10:46:12,0.0
-13392,-356,-2228,-1932,188,473,2024-01-24 10:46:12,0.0
-13404,-476,-2072,-1994,241,511,2024-01-24 10:46:12,0.0
-13224,-436,-2112,-1891,323,539,2024-01-24 10:46:12,0.0
-13288,-664,-2020,-1842,341,443,2024-01-24 10:46:12,0.0
-13168,-816,-1928,-1778,393,363,2024-01-24 10:46:12,0.0
-13536,-1280,-1792,-1661,519,262,2024-01-24 10:46:12,0.0
-13248,-1136,-1364,-1385,499,153,2024-01-24 10:46:12,0.0
-13468,-1244,-1540,-1125,371,-32,2024-01-24 10:46:12,0.0
-13376,-1292,-1424,-790,262,-148,2024-01-24 10:46:12,0.0
-13392,-1536,-1236,-408,265,-321,2024-01-24 10:46:12,0.0
-13428,-1532,-1408,-61,297,-431,2024-01-24 10:46:12,0.0
-13480,-1172,-1668,238,245,-515,2024-01-24 10:46:12,0.0
-13536,-972,-1708,528,23,-603,2024-01-24 10:46:12,0.0
-13512,-784,-1908,698,-184,-643,2024-01-24 10:46:12,0.0
-13600,-512,-1880,909,-215,-678,2024-01-24 10:46:12,0.0
-13488,-220,-1708,1086,-143,-625,2024-01-24 10:46:12,0.0
-13384,12,-1764,1144,-15,-600,2024-01-24 10:46:12,0.0
-13380,196,-1924,1219,214,-560,2024-01-24 10:46:12,0.0
-13400,384,-1844,1161,366,-523,2024-01-24 10:46:12,0.0
-13512,604,-1824,1085,436,-495,2024-01-24 10:46:12,0.0
-13664,660,-1936,969,320,-539,2024-01-24 10:46:12,0.0
-13648,816,-2064,879,205,-558,2024-01-24 10:46:12,0.0
-13504,864,-2080,820,138,-607,2024-01-24 10:46:12,0.0
-13384,1068,-1972,705,219,-618,2024-01-24 10:46:12,0.0
-13256,872,-2164,578,329,-591,2024-01-24 10:46:12,0.0
-13276,860,-2428,377,521,-525,2024-01-24 10:46:12,0.0
-13428,672,-2148,124,542,-382,2024-01-24 10:46:12,0.0
-13436,568,-2140,-201,438,-296,2024-01-24 10:46:12,0.0
-13432,704,-2108,-500,467,-234,2024-01-24 10:46:12,0.0
-13664,532,-2192,-770,422,-197,2024-01-24 10:46:12,0.0
-13676,496,-2136,-977,233,-195,2024-01-24 10:46:13,0.0
-13608,376,-2008,-1118,-8,-200,2024-01-24 10:46:13,0.0
-13444,160,-1932,-1181,-34,-259,2024-01-24 10:46:13,0.0
-13416,44,-1688,-1206,5,-281,2024-01-24 10:46:13,0.0
-13452,-60,-1844,-1180,48,-281,2024-01-24 10:46:13,0.0
-13392,-84,-1828,-1035,138,-214,2024-01-24 10:46:13,0.0
-13360,-300,-1864,-861,108,-118,2024-01-24 10:46:13,0.0
-13472,-344,-1860,-713,118,-71,2024-01-24 10:46:13,0.0
-13496,-448,-1760,-551,178,-50,2024-01-24 10:46:13,
-13536,-404,-1640,-397,155,7,2024-01-24 10:46:13,0.0
-13684,-328,-1752,-217,117,3,2024-01-24 10:46:13,0.0
-13588,-240,-1812,-90,101,11,2024-01-24 10:46:13,0.0
-13348,-232,-1988,-3,112,22,2024-01-24 10:46:13,0.0
-13380,-152,-1972,75,162,27,2024-01-24 10:46:13,0.0
-13464,-276,-1848,117,141,55,2024-01-24 10:46:13,0.0
-13500,-104,-1944,139,176,87,2024-01-24 10:46:13,0.0
-13592,-64,-1884,105,133,81,2024-01-24 10:46:13,0.0
-13384,-56,-2012,85,73,68,2024-01-24 10:46:13,0.0
-13332,-48,-1960,41,191,-3,2024-01-24 10:46:13,0.0
-13344,-308,-1776,-3,321,-45,2024-01-24 10:46:13,0.0
-13464,-140,-1664,-39,378,6,2024-01-24 10:46:13,0.0
-13496,-4,-1836,-89,393,-49,2024-01-24 10:46:13,0.0
-13480,-8,-1932,-78,408,-64,2024-01-24 10:46:13,0.0
-13592,60,-2040,-89,367,-83,2024-01-24 10:46:13,0.0
-13448,36,-2004,-135,304,-141,2024-01-24 10:46:13,0.0
-13428,16,-1980,-175,398,-157,2024-01-24 10:46:13,0.0
-13420,192,-2048,-227,656,-235,2024-01-24 10:46:13,0.0
-13308,192,-2168,-323,1092,-221,2024-01-24 10:46:13,0.0
-13536,260,-2592,-390,1578,-108,2024-01-24 10:46:13,0.0
-13764,844,-2572,-554,1657,122,2024-01-24 10:46:13,0.0
-13880,376,-2728,-693,2077,381,2024-01-24 10:46:13,0.0
-14056,468,-2656,-547,1932,769,2024-01-24 10:46:13,0.0
-13900,884,-3132,-794,1558,937,2024-01-24 10:46:13,0.0
-14020,1012,-2660,-1121,858,1048,2024-01-24 10:46:13,0.0
-13768,1260,-2652,-1199,374,1110,2024-01-24 10:46:13,0.0
-13588,1356,-2696,-1175,86,1207,2024-01-24 10:46:13,0.0
-13636,1232,-2452,-1375,-256,1207,2024-01-24 10:46:13,0.0
-13368,1252,-2484,-1545,-395,1108,2024-01-24 10:46:13,0.0
-13012,1120,-2608,-1814,-314,841,2024-01-24 10:46:13,0.0
-12828,876,-2744,-2279,-85,640,2024-01-24 10:46:13,0.0
-12856,556,-2840,-2660,197,476,2024-01-24 10:46:13,0.0
-13104,524,-2708,-3006,370,356,2024-01-24 10:46:13,0.0
-13208,452,-2492,-3384,592,221,2024-01-24 10:46:13,0.0
-13316,440,-2628,-3670,738,-71,2024-01-24 10:46:13,0.0
-12960,276,-2784,-3961,688,-310,2024-01-24 10:46:13,0.0
-12388,148,-2712,-4201,468,-575,2024-01-24 10:46:13,0.0
-12008,-16,-2508,-4354,403,-1051,2024-01-24 10:46:13,0.0
-11500,124,-2368,-4361,336,-1627,2024-01-24 10:46:13,0.0
-11408,-64,-1988,-4068,411,-2098,2024-01-24 10:46:13,0.0
-11916,-36,-1444,-3768,263,-2474,2024-01-24 10:46:13,0.0
-12800,-204,-1404,-3142,146,-2645,2024-01-24 10:46:13,0.0
-13536,-392,-1688,-2622,134,-2654,2024-01-24 10:46:13,0.0
-14452,-644,-1984,-2253,-212,-2477,2024-01-24 10:46:13,0.0
-14608,-360,-2172,-1994,-825,-2219,2024-01-24 10:46:13,0.0
-13792,-444,-1768,-1686,-1052,-2035,2024-01-24 10:46:13,0.0
-13348,-452,-1196,-1463,-794,-2083,2024-01-24 10:46:13,0.0
-12776,-204,-1032,-1235,-719,-2259,2024-01-24 10:46:13,0.0
-12424,100,-1260,-989,-730,-2560,2024-01-24 10:46:13,0.0
-12148,364,-1716,-703,-309,-2821,2024-01-24 10:46:14,0.0
-12972,464,-2228,-475,222,-2890,2024-01-24 10:46:14,0.0
-14388,164,-2460,-461,390,-2720,2024-01-24 10:46:14,0.0
-16192,-916,-2020,-318,-416,-2215,2024-01-24 10:46:14,0.0
-16672,-1608,-1660,-353,-1254,-1496,2024-01-24 10:46:14,0.0
-15356,-1252,-1676,-457,-1311,-399,2024-01-24 10:46:14,0.0
-13760,-688,-1432,-299,-1056,255,2024-01-24 10:46:14,0.0
-13252,80,-1388,-114,-928,676,2024-01-24 10:46:14,0.0
-13076,468,-1348,75,-790,751,2024-01-24 10:46:14,0.0
-13048,164,-1436,307,-639,597,2024-01-24 10:46:14,0.0
-12772,-272,-1588,361,-441,346,2024-01-24 10:46:14,0.0
-12516,-412,-1704,438,-34,57,2024-01-24 10:46:14,0.0
-12684,-464,-1692,479,431,-210,2024-01-24 10:46:14,0.0
-12940,-296,-1524,622,942,-267,2024-01-24 10:46:14,0.0
-13668,-112,-1880,575,941,-250,2024-01-24 10:46:14,0.0
-14188,-44,-1948,461,513,-211,2024-01-24 10:46:14,0.0
-14164,-128,-2048,379,14,-220,2024-01-24 10:46:14,0.0
-13924,-152,-1876,230,-332,-191,2024-01-24 10:46:14,0.0
-13588,-228,-1620,155,-484,-228,2024-01-24 10:46:14,0.0
-13424,-188,-1624,166,-328,-280,2024-01-24 10:46:14,0.0
-13484,-308,-1528,176,-230,-250,2024-01-24 10:46:14,0.0
-13488,-204,-1644,300,-199,-205,2024-01-24 10:46:14,0.0
-13536,-172,-1624,403,-162,-226,2024-01-24 10:46:14,0.0
-13640,-172,-1712,419,-207,-264,2024-01-24 10:46:14,0.0
-13512,-212,-1744,467,-267,-226,2024-01-24 10:46:14,0.0
-13304,-304,-1824,351,-202,-186,2024-01-24 10:46:14,0.0
-13432,-112,-1620,290,-22,-149,2024-01-24 10:46:14,0.0
-13396,12,-1500,288,151,-154,2024-01-24 10:46:14,0.0
-13480,132,-1616,254,274,-171,2024-01-24 10:46:14,0.0
-13628,-8,-1704,248,289,-156,2024-01-24 10:46:14,0.0
-13660,-8,-1704,155,272,-169,2024-01-24 10:46:14,0.0
-13504,-84,-1748,90,345,-129,2024-01-24 10:46:14,0.0
-13648,-220,-1640,-13,521,-35,2024-01-24 10:46:14,0.0
-13808,-256,-1564,-63,565,39,2024-01-24 10:46:14,0.0
-13688,-192,-1584,-96,499,109,2024-01-24 10:46:14,0.0
-13704,-176,-1480,-106,418,128,2024-01-24 10:46:14,0.0
-13612,-100,-1704,-77,427,169,2024-01-24 10:46:14,0.0
-13784,-116,-1692,-65,305,199,2024-01-24 10:46:14,0.0
-13752,-168,-1684,-87,92,225,2024-01-24 10:46:14,0.0
-13708,-192,-1648,-135,-37,264,2024-01-24 10:46:14,0.0
-13376,-116,-1728,-122,3,251,2024-01-24 10:46:14,0.0
-13416,-48,-1592,-138,54,196,2024-01-24 10:46:14,0.0
-13304,-136,-1596,-145,59,147,2024-01-24 10:46:14,0.0
-13408,-100,-1520,-133,94,131,2024-01-24 10:46:14,0.0
-13380,-84,-1840,-135,175,90,2024-01-24 10:46:14,0.0
-13368,-268,-1772,-181,241,-16,2024-01-24 10:46:14,0.0
-13320,-208,-1892,-179,314,-60,2024-01-24 10:46:14,0.0
-13500,-232,-1820,-275,312,-96,2024-01-24 10:46:14,0.0
-13456,-76,-1824,-327,327,-99,2024-01-24 10:46:14,0.0
-13468,28,-1768,-335,346,-138,2024-01-24 10:46:14,0.0
-13500,-96,-1616,-294,290,-144,2024-01-24 10:46:14,
-13424,-44,-1756,-273,354,-158,2024-01-24 10:46:14,0.0
-13512,-244,-1748,-311,398,-156,2024-01-24 10:46:14,0.0
-13544,-152,-1748,-299,349,-136,2024-01-24 10:46:14,0.0
-13556,-100,-1760,-288,315,-165,2024-01-24 10:46:14,0.0
-13504,-144,-1916,-299,268,-135,2024-01-24 10:46:14,0.0
-13608,-80,-1552,-277,307,-152,2024-01-24 10:46:14,0.0
-13476,-104,-1648,-238,298,-186,2024-01-24 10:46:14,0.0
-13548,-88,-1796,-199,256,-147,2024-01-24 10:46:14,0.0
-13492,-172,-1620,-251,165,-153,2024-01-24 10:46:15,0.0
-13480,-120,-1708,-280,129,-158,2024-01-24 10:46:15,0.0
-13412,-168,-1664,-289,185,-156,2024-01-24 10:46:15,0.0
-13288,-164,-1600,-336,262,-184,2024-01-24 10:46:15,0.0
-13424,-68,-1704,-275,298,-201,2024-01-24 10:46:15,0.0
-13380,-168,-1776,-238,333,-209,2024-01-24 10:46:15,0.0
-13456,-236,-1884,-167,288,-202,2024-01-24 10:46:15,0.0
-13460,-276,-1612,-123,278,-218,2024-01-24 10:46:15,0.0
-13504,-320,-1648,-124,218,-225,2024-01-24 10:46:15,0.0
-13480,-252,-1644,-61,234,-220,2024-01-24 10:46:15,0.0
-13532,-136,-1484,-33,202,-243,2024-01-24 10:46:15,0.0
-13584,-32,-1772,14,192,-187,2024-01-24 10:46:15,0.0
-13512,-56,-1788,61,190,-178,2024-01-24 10:46:15,0.0
-13544,-36,-1868,9,155,-192,2024-01-24 10:46:15,0.0
-13488,-148,-1644,-15,182,-205,2024-01-24 10:46:15,0.0
-13504,12,-1576,-5,214,-196,2024-01-24 10:46:15,0.0
-13484,52,-1796,-46,244,-170,2024-01-24 10:46:15,0.0
-13480,96,-1780,-70,124,-182,2024-01-24 10:46:15,0.0
-13444,-4,-1620,-79,38,-211,2024-01-24 10:46:15,0.0
-13276,32,-1744,-87,158,-215,2024-01-24 10:46:15,0.0
-13328,52,-1536,-94,313,-207,2024-01-24 10:46:15,0.0
-13408,192,-1480,-134,473,-143,2024-01-24 10:46:15,0.0
-13688,144,-1688,-130,527,-157,2024-01-24 10:46:15,0.0
-13936,4,-1736,-137,309,-113,2024-01-24 10:46:15,0.0
-13740,36,-1700,-106,92,-48,2024-01-24 10:46:15,0.0
-13452,176,-1696,-66,144,-60,2024-01-24 10:46:15,0.0
-13320,252,-1664,-60,295,-86,2024-01-24 10:46:15,0.0
-13456,248,-1596,-43,385,-88,2024-01-24 10:46:15,0.0
-13512,192,-1716,-29,427,-96,2024-01-24 10:46:15,0.0
-13460,156,-1704,-21,360,-120,2024-01-24 10:46:15,0.0
-13324,220,-1512,-8,364,-133,2024-01-24 10:46:15,0.0
-13460,284,-1688,-32,394,-143,2024-01-24 10:46:15,0.0
-13460,228,-1660,-28,477,-190,2024-01-24 10:46:15,0.0
-13652,108,-1764,-62,532,-169,2024-01-24 10:46:15,0.0
-13620,208,-1620,-106,556,-147,2024-01-24 10:46:15,0.0
-13608,152,-1740,-142,472,-138,2024-01-24 10:46:15,0.0
-13460,252,-1720,-155,420,-177,2024-01-24 10:46:15,0.0
-13452,148,-1868,-190,512,-195,2024-01-24 10:46:15,0.0
-13444,176,-1620,-121,559,-212,2024-01-24 10:46:15,0.0
-13628,188,-1360,-58,517,-220,2024-01-24 10:46:15,0.0
-13708,312,-1552,-110,608,-155,2024-01-24 10:46:15,0.0
-14120,528,-1652,-181,652,53,2024-01-24 10:46:15,0.0
-14160,220,-1640,-230,544,286,2024-01-24 10:46:15,0.0
-13936,-164,-1740,-295,435,475,2024-01-24 10:46:15,0.0
-13592,-364,-1712,-373,413,617,2024-01-24 10:46:15,0.0
-13488,-336,-2112,-395,368,708,2024-01-24 10:46:15,0.0
-13284,-356,-1832,-413,184,722,2024-01-24 10:46:15,0.0
-12984,-132,-1640,-321,31,645,2024-01-24 10:46:15,0.0
-12780,48,-1924,-179,288,473,2024-01-24 10:46:15,0.0
-12732,16,-2116,-87,592,226,2024-01-24 10:46:15,0.0
-13012,0,-1960,24,656,52,2024-01-24 10:46:15,0.0
-13248,-80,-2076,112,633,-106,2024-01-24 10:46:15,0.0
-13392,-168,-2184,196,574,-177,2024-01-24 10:46:15,0.0
-13564,-408,-2016,289,481,-194,2024-01-24 10:46:15,0.0
-13732,-376,-2004,373,278,-190,2024-01-24 10:46:15,0.0
-13672,-380,-2156,568,74,-210,2024-01-24 10:46:15,0.0
-13520,-424,-2148,637,-279,-219,2024-01-24 10:46:15,0.0
-13424,-276,-1996,664,-437,-301,2024-01-24 10:46:15,0.0
-13216,-324,-2052,683,-436,-350,2024-01-24 10:46:15,0.0
-13424,-348,-2104,667,-442,-413,2024-01-24 10:46:16,0.0
-13352,-268,-1876,601,-376,-457,2024-01-24 10:46:16,0.0
-13176,-212,-1696,530,-296,-526,2024-01-24 10:46:16,0.0
-13156,-164,-1704,432,-143,-590,2024-01-24 10:46:16,0.0
-13172,-72,-1956,288,-194,-689,2024-01-24 10:46:16,0.0
-13500,36,-1656,211,-314,-762,2024-01-24 10:46:16,0.0
-13664,36,-1520,202,-449,-781,2024-01-24 10:46:16,0.0
-13700,-48,-1548,250,-497,-789,2024-01-24 10:46:16,0.0
-13716,-260,-1344,321,-571,-773,2024-01-24 10:46:16,0.0
-13752,-436,-1532,436,-553,-709,2024-01-24 10:46:16,0.0
-13740,-476,-1448,478,-436,-617,2024-01-24 10:46:16,0.0
-13728,-320,-1496,534,-445,-571,2024-01-24 10:46:16,0.0
-13620,-140,-1432,628,-549,-489,2024-01-24 10:46:16,0.0
-13392,-68,-1680,712,-558,-446,2024-01-24 10:46:16,0.0
-13288,-32,-1500,749,-409,-478,2024-01-24 10:46:16,0.0
-13336,148,-1480,746,-210,-476,2024-01-24 10:46:16,0.0
-13608,60,-1624,705,-146,-526,2024-01-24 10:46:16,0.0
-13628,-24,-1648,668,-208,-616,2024-01-24 10:46:16,0.0
-13616,-48,-1764,587,-315,-657,2024-01-24 10:46:16,0.0
-13372,104,-1780,510,-318,-696,2024-01-24 10:46:16,0.0
-13360,-44,-1580,374,-251,-778,2024-01-24 10:46:16,0.0
-13292,-44,-1664,186,-193,-835,2024-01-24 10:46:16,0.0
-13404,-72,-1608,0,-197,-825,2024-01-24 10:46:16,0.0
-13552,-200,-1748,-56,-233,-929,2024-01-24 10:46:16,0.0
-13424,-188,-1828,-141,-244,-982,2024-01-24 10:46:16,0.0
-13392,-360,-1748,-217,-299,-1075,2024-01-24 10:46:16,0.0
-13156,-300,-1656,-303,-219,-1195,2024-01-24 10:46:16,0.0
-13184,-396,-1620,-340,-90,-1227,2024-01-24 10:46:16,0.0
-13292,-596,-1396,-332,95,-1280,2024-01-24 10:46:16,0.0
-13616,-696,-1188,-329,133,-1328,2024-01-24 10:46:16,0.0
-13752,-608,-1068,-235,114,-1296,2024-01-24 10:46:16,0.0
-13996,-736,-1188,-95,-72,-1261,2024-01-24 10:46:16,0.0
-14084,-804,-1216,79,-196,-1131,2024-01-24 10:46:16,
-14260,-816,-1332,150,-301,-963,2024-01-24 10:46:16,0.0
-14336,-860,-1356,229,-342,-710,2024-01-24 10:46:16,0.0
-14228,-728,-1392,269,-270,-349,2024-01-24 10:46:16,0.0
-14052,-504,-1356,224,-327,-120,2024-01-24 10:46:16,0.0
-13728,-328,-1312,226,-181,11,2024-01-24 10:46:16,0.0
-13468,-308,-1480,180,125,99,2024-01-24 10:46:16,0.0
-13220,-224,-1436,45,218,128,2024-01-24 10:46:16,0.0
-13252,-128,-1548,-19,396,101,2024-01-24 10:46:16,0.0
-13252,-92,-1232,-142,410,-107,2024-01-24 10:46:16,0.0
-13244,-8,-1448,-260,365,-264,2024-01-24 10:46:16,0.0
-13396,104,-1504,-415,357,-385,2024-01-24 10:46:16,0.0
-13608,-28,-1436,-546,243,-518,2024-01-24 10:46:16,0.0
-13668,172,-1424,-699,95,-548,2024-01-24 10:46:16,0.0
-13644,12,-1500,-804,114,-533,2024-01-24 10:46:16,0.0
-13748,-4,-1480,-873,88,-484,2024-01-24 10:46:16,0.0
-13744,-92,-1468,-932,-18,-477,2024-01-24 10:46:16,0.0
-13876,-348,-1244,-979,-80,-450,2024-01-24 10:46:16,0.0
-13748,-360,-1200,-1046,-207,-470,2024-01-24 10:46:16,0.0
-13488,-264,-1152,-1051,-196,-471,2024-01-24 10:46:16,0.0
-12768,-600,-1056,-947,333,-490,2024-01-24 10:46:16,0.0
-12680,-592,-924,-921,1515,-470,2024-01-24 10:46:16,0.0
-13272,-636,-672,-998,2352,-428,2024-01-24 10:46:16,0.0
-14052,-684,-568,-1003,2489,-404,2024-01-24 10:46:16,0.0
-14588,-860,-600,-860,2165,-262,2024-01-24 10:46:16,0.0
-14676,-952,-952,-665,1594,-42,2024-01-24 10:46:16,0.0
-14524,-864,-968,-531,1257,247,2024-01-24 10:46:16,0.0
-14336,-772,-1232,-376,1149,493,2024-01-24 10:46:16,0.0
-14108,-752,-1488,-262,1059,656,2024-01-24 10:46:17,0.0
-14064,-640,-1448,-129,924,769,2024-01-24 10:46:17,0.0
-14128,-320,-1512,-43,717,915,2024-01-24 10:46:17,0.0
-13964,-208,-1576,104,393,961,2024-01-24 10:46:17,0.0
-13828,-88,-1756,186,198,938,2024-01-24 10:46:17,0.0
-13468,-8,-1664,212,-170,806,2024-01-24 10:46:17,0.0
-13216,4,-1748,169,-318,688,2024-01-24 10:46:17,0.0
-13152,-44,-1728,111,-274,526,2024-01-24 10:46:17,0.0
-13132,-16,-1728,58,-199,435,2024-01-24 10:46:17,0.0
-12940,-136,-1912,77,-146,287,2024-01-24 10:46:17,0.0
-13044,-124,-1824,-5,-85,153,2024-01-24 10:46:17,0.0
-13252,-52,-1768,-99,35,-13,2024-01-24 10:46:17,0.0
-13372,128,-1876,-122,163,-107,2024-01-24 10:46:17,0.0
-13424,72,-2036,-172,282,-191,2024-01-24 10:46:17,0.0
-13504,76,-2112,-315,316,-266,2024-01-24 10:46:17,0.0
-13280,-116,-2224,-412,360,-389,2024-01-24 10:46:17,0.0
-13200,-212,-2168,-443,502,-516,2024-01-24 10:46:17,0.0
-13168,-140,-2216,-489,577,-547,2024-01-24 10:46:17,0.0
-13344,-332,-2004,-348,751,-560,2024-01-24 10:46:17,0.0
-13260,-580,-2208,-167,672,-565,2024-01-24 10:46:17,0.0
-13044,-868,-2192,-8,788,-595,2024-01-24 10:46:17,0.0
-12992,-940,-2404,82,1087,-628,2024-01-24 10:46:17,0.0
-12972,-956,-2324,215,1242,-690,2024-01-24 10:46:17,0.0
-13308,-932,-2352,296,1273,-749,2024-01-24 10:46:17,0.0
-13560,-868,-2316,409,1042,-868,2024-01-24 10:46:17,0.0
-13796,-752,-2272,545,741,-894,2024-01-24 10:46:17,0.0
-13548,-956,-2464,608,466,-912,2024-01-24 10:46:17,0.0
-13292,-896,-2524,667,257,-940,2024-01-24 10:46:17,0.0
-12836,-832,-2572,721,133,-1103,2024-01-24 10:46:17,0.0
-12728,-860,-2416,791,278,-1142,2024-01-24 10:46:17,0.0
-12836,-928,-2184,803,426,-1173,2024-01-24 10:46:17,0.0
-13088,-900,-2084,723,564,-1108,2024-01-24 10:46:17,0.0
-13436,-752,-1832,781,564,-1002,2024-01-24 10:46:17,0.0
-13856,-944,-1656,748,429,-773,2024-01-24 10:46:17,0.0
-13404,-1276,-1468,701,128,-574,2024-01-24 10:46:17,0.0
-13152,-1656,-1684,695,306,-314,2024-01-24 10:46:17,0.0
-12320,-2028,-1648,649,634,-258,2024-01-24 10:46:17,0.0
-13028,-1928,-1600,589,1253,-239,2024-01-24 10:46:17,0.0
-13836,-1812,-1712,521,1378,-384,2024-01-24 10:46:17,0.0
-14452,-1468,-1620,466,983,-508,2024-01-24 10:46:17,0.0
-14616,-1284,-1724,444,244,-697,2024-01-24 10:46:17,0.0
-14420,-1260,-1676,382,-261,-965,2024-01-24 10:46:17,0.0
-14088,-1172,-1760,370,-558,-1110,2024-01-24 10:46:17,0.0
-13656,-1200,-1576,330,-572,-1191,2024-01-24 10:46:17,0.0
-13616,-1504,-1656,217,-383,-1048,2024-01-24 10:46:17,0.0
-13816,-1596,-1968,23,-207,-929,2024-01-24 10:46:17,0.0
-14248,-1640,-1900,-117,-574,-793,2024-01-24 10:46:17,0.0
-13696,-1640,-2000,-210,-766,-750,2024-01-24 10:46:17,0.0
-13164,-1628,-1800,-241,-514,-700,2024-01-24 10:46:17,0.0
-12876,-1640,-2004,-208,-178,-681,2024-01-24 10:46:17,0.0
-12684,-1788,-2032,-174,217,-691,2024-01-24 10:46:17,0.0
-12888,-1940,-2088,-170,514,-630,2024-01-24 10:46:17,0.0
-13096,-1772,-2076,-79,588,-618,2024-01-24 10:46:17,0.0
-13516,-1720,-1936,-29,460,-533,2024-01-24 10:46:17,0.0
-13376,-1736,-2064,3,358,-475,2024-01-24 10:46:17,0.0
-13184,-1600,-2156,3,262,-447,2024-01-24 10:46:17,0.0
-13180,-1744,-2120,50,231,-465,2024-01-24 10:46:17,0.0
-13264,-1880,-1772,107,71,-541,2024-01-24 10:46:17,0.0
-13528,-1820,-1816,209,-96,-593,2024-01-24 10:46:18,0.0
-13580,-1980,-1684,288,-259,-662,2024-01-24 10:46:18,0.0
-13604,-2132,-1956,431,-498,-650,2024-01-24 10:46:18,0.0
-13816,-2128,-1920,471,-960,-525,2024-01-24 10:46:18,0.0
-13292,-1984,-1868,453,-1081,-399,2024-01-24 10:46:18,0.0
-12976,-1784,-1800,437,-706,-346,2024-01-24 10:46:18,0.0
-13120,-1576,-1500,463,-257,-358,2024-01-24 10:46:18,0.0
-13516,-1528,-1468,431,26,-362,2024-01-24 10:46:18,0.0
-13800,-1220,-1584,431,188,-364,2024-01-24 10:46:18,0.0
-13772,-1104,-1676,365,159,-308,2024-01-24 10:46:18,0.0
-13408,-1296,-1820,300,88,-287,2024-01-24 10:46:18,0.0
-13048,-1452,-1684,118,434,-247,2024-01-24 10:46:18,0.0
-13284,-1552,-1528,-35,889,-198,2024-01-24 10:46:18,0.0
-13744,-1484,-1444,-148,1057,-140,2024-01-24 10:46:18,0.0
-13912,-1628,-1552,-166,752,-95,2024-01-24 10:46:18,
-13984,-1676,-1504,-196,411,-133,2024-01-24 10:46:18,0.0
-13720,-1676,-1576,-158,172,-158,2024-01-24 10:46:18,0.0
-13320,-1584,-1624,-100,134,-157,2024-01-24 10:46:18,0.0
-13236,-1732,-1612,-70,234,-169,2024-01-24 10:46:18,0.0
-13184,-1832,-1572,-45,309,-199,2024-01-24 10:46:18,0.0
-13388,-1888,-1672,-39,260,-111,2024-01-24 10:46:18,0.0
-13344,-1856,-1772,-20,131,-7,2024-01-24 10:46:18,0.0
-13260,-1724,-1892,4,105,46,2024-01-24 10:46:18,0.0
-13112,-1724,-1820,26,191,37,2024-01-24 10:46:18,0.0
-13244,-1848,-1748,61,297,25,2024-01-24 10:46:18,0.0
-13348,-1792,-1660,73,404,7,2024-01-24 10:46:18,0.0
-13380,-1892,-1828,60,366,51,2024-01-24 10:46:18,0.0
-13488,-1744,-1720,83,237,73,2024-01-24 10:46:18,0.0
-13460,-1728,-1656,30,246,152,2024-01-24 10:46:18,0.0
-13528,-1740,-1680,-8,368,207,2024-01-24 10:46:18,0.0
-13684,-1704,-1680,-40,400,246,2024-01-24 10:46:18,0.0
-13844,-1628,-1612,-15,341,298,2024-01-24 10:46:18,0.0
-14040,-1824,-1764,-40,331,293,2024-01-24 10:46:18,0.0
-13952,-1752,-1784,-114,156,325,2024-01-24 10:46:18,0.0
-13948,-1760,-1656,-154,8,395,2024-01-24 10:46:18,0.0
-13492,-1600,-1804,-200,106,492,2024-01-24 10:46:18,0.0
-13160,-1524,-1708,-253,277,534,2024-01-24 10:46:18,0.0
-13424,-1292,-1560,-316,601,569,2024-01-24 10:46:18,0.0
-13672,-1276,-1704,-374,767,640,2024-01-24 10:46:18,0.0
-13616,-1180,-1620,-473,623,758,2024-01-24 10:46:18,0.0
-13320,-1128,-1520,-519,408,852,2024-01-24 10:46:18,0.0
-13208,-1096,-1832,-550,443,1023,2024-01-24 10:46:18,0.0
-12860,-1300,-1944,-558,695,1120,2024-01-24 10:46:18,0.0
-13248,-1336,-1868,-500,801,1196,2024-01-24 10:46:18,0.0
-13524,-1340,-1940,-484,778,1242,2024-01-24 10:46:18,0.0
-13580,-1232,-2280,-482,972,1141,2024-01-24 10:46:18,0.0
-13940,-952,-2264,-413,940,939,2024-01-24 10:46:18,0.0
-14108,-712,-2316,-307,556,587,2024-01-24 10:46:18,0.0
-13868,-628,-2188,-211,-68,269,2024-01-24 10:46:18,0.0
-13292,-756,-2204,-190,-230,-28,2024-01-24 10:46:18,0.0
-13060,-816,-2068,-263,35,-25,2024-01-24 10:46:18,0.0
-12772,-1096,-2008,-348,262,35,2024-01-24 10:46:18,0.0
-12672,-968,-2220,-571,501,158,2024-01-24 10:46:18,0.0
-12812,-1000,-1936,-686,738,322,2024-01-24 10:46:18,0.0
-13180,-904,-2100,-730,895,493,2024-01-24 10:46:18,0.0
-13420,-720,-2192,-747,889,647,2024-01-24 10:46:18,0.0
-13504,-772,-2128,-797,712,703,2024-01-24 10:46:18,0.0
-13472,-572,-2428,-840,676,650,2024-01-24 10:46:18,0.0
-13584,-556,-2408,-863,670,536,2024-01-24 10:46:18,0.0
-13652,-764,-2484,-809,505,451,2024-01-24 10:46:18,0.0
-13576,-952,-2308,-740,461,404,2024-01-24 10:46:19,0.0
-13616,-704,-2492,-680,462,443,2024-01-24 10:46:19,0.0
-13488,-800,-2472,-597,399,534,2024-01-24 10:46:19,0.0
-13416,-840,-2500,-595,385,526,2024-01-24 10:46:19,0.0
-13008,-904,-2684,-541,527,529,2024-01-24 10:46:19,0.0
-12988,-436,-2936,-591,828,503,2024-01-24 10:46:19,0.0
-12904,-192,-2924,-789,1056,643,2024-01-24 10:46:19,0.0
-12724,-20,-2940,-805,1368,543,2024-01-24 10:46:19,0.0
-12852,340,-2628,-881,1303,243,2024-01-24 10:46:19,0.0
-13176,664,-2324,-648,1172,-60,2024-01-24 10:46:19,0.0
-13368,496,-2348,-469,1123,-232,2024-01-24 10:46:19,0.0
-13636,472,-2532,-455,1089,-299,2024-01-24 10:46:19,0.0
-14048,408,-2548,-562,1024,-247,2024-01-24 10:46:19,0.0
-14092,140,-2612,-711,1140,-110,2024-01-24 10:46:19,0.0
-14420,-52,-2588,-1012,753,124,2024-01-24 10:46:19,0.0
-14424,-396,-2160,-1304,191,370,2024-01-24 10:46:19,0.0
-13684,-452,-1848,-1380,-348,504,2024-01-24 10:46:19,0.0
-12940,-300,-2108,-1391,-323,498,2024-01-24 10:46:19,0.0
-12728,136,-1628,-1323,-194,501,2024-01-24 10:46:19,0.0
-12416,92,-1880,-1011,186,375,2024-01-24 10:46:19,0.0
-12640,60,-2200,-825,656,122,2024-01-24 10:46:19,0.0
-13052,-164,-2108,-660,776,-60,2024-01-24 10:46:19,0.0
-13584,-284,-1968,-466,779,-56,2024-01-24 10:46:19,0.0
-14076,-288,-2124,-293,605,49,2024-01-24 10:46:19,0.0
-14272,-260,-2060,-157,330,220,2024-01-24 10:46:19,0.0
-13920,-256,-2236,34,-61,422,2024-01-24 10:46:19,0.0
-13672,-156,-2384,147,-302,546,2024-01-24 10:46:19,0.0
-13512,-340,-1912,296,-597,487,2024-01-24 10:46:19,0.0
-13236,-144,-1604,407,-872,445,2024-01-24 10:46:19,0.0
-12744,-204,-1764,589,-980,236,2024-01-24 10:46:19,0.0
-12624,-200,-1648,621,-930,22,2024-01-24 10:46:19,0.0
-12520,-520,-1812,599,-865,-253,2024-01-24 10:46:19,0.0
-12412,-348,-1832,443,-857,-670,2024-01-24 10:46:19,0.0
-11876,-352,-1908,265,-609,-1084,2024-01-24 10:46:19,0.0
-12060,-356,-1964,213,-225,-1506,2024-01-24 10:46:19,0.0
-12040,-484,-2244,153,389,-1846,2024-01-24 10:46:19,0.0
-12668,-468,-2428,140,778,-2071,2024-01-24 10:46:19,0.0
-13460,-812,-2704,276,782,-2099,2024-01-24 10:46:19,0.0
-13544,-820,-3440,305,1129,-1913,2024-01-24 10:46:19,0.0
-14172,-1044,-2944,442,1366,-1595,2024-01-24 10:46:19,0.0
-14860,-1288,-3264,468,1329,-1128,2024-01-24 10:46:19,0.0
-15092,-1496,-3552,441,651,-500,2024-01-24 10:46:19,0.0
-14420,-1556,-3052,461,-94,-136,2024-01-24 10:46:19,0.0
-13628,-1176,-2336,636,-464,-4,2024-01-24 10:46:19,0.0
-13036,-1168,-2248,835,-217,-146,2024-01-24 10:46:19,0.0
-13072,-924,-1908,1063,153,-191,2024-01-24 10:46:19,0.0
-12956,-836,-2212,1306,356,-255,2024-01-24 10:46:19,0.0
-13172,-592,-2308,1619,375,-286,2024-01-24 10:46:19,0.0
-13184,-532,-2492,1828,503,-354,2024-01-24 10:46:19,0.0
-13148,-728,-2684,1997,508,-441,2024-01-24 10:46:19,0.0
-13100,-1248,-2576,2004,619,-613,2024-01-24 10:46:19,0.0
-13280,-1364,-2664,1833,798,-690,2024-01-24 10:46:19,0.0
-13756,-968,-2824,1488,782,-686,2024-01-24 10:46:19,0.0
-14104,-780,-2528,1241,481,-689,2024-01-24 10:46:19,0.0
-14080,-496,-2332,916,-222,-654,2024-01-24 10:46:19,
