acceleration_x,acceleration_y,acceleration_z,gyroscope_x,gyroscope_y,gyroscope_z,timestamp,label
-12616,-1704,-1024,976,435,-193,2024-01-24 10:48:43,0.0
-12548,-1484,-644,862,611,-93,2024-01-24 10:48:43,0.0
-13296,-1348,-212,747,630,126,2024-01-24 10:48:43,0.0
-13604,-1236,176,720,367,206,2024-01-24 10:48:43,0.0
-13952,-1140,116,750,329,226,2024-01-24 10:48:43,0.0
-13924,-1224,28,686,379,354,2024-01-24 10:48:43,0.0
-13804,-1212,-304,643,589,309,2024-01-24 10:48:43,0.0
-13664,-1232,-572,596,898,355,2024-01-24 10:48:43,0.0
-13620,-1036,-612,488,932,278,2024-01-24 10:48:43,0.0
-13736,-1036,-648,302,952,199,2024-01-24 10:48:43,0.0
-13928,-984,-860,145,852,120,2024-01-24 10:48:43,0.0
-13920,-700,-988,-69,591,129,2024-01-24 10:48:43,0.0
-13596,-760,-1176,-82,475,209,2024-01-24 10:48:43,0.0
-13416,-532,-1352,-100,781,392,2024-01-24 10:48:43,0.0
-13924,-280,-1248,-96,881,656,2024-01-24 10:48:43,0.0
-13988,-152,-1592,-258,569,983,2024-01-24 10:48:43,0.0
-14300,48,-2284,-604,-99,1133,2024-01-24 10:48:43,0.0
-14348,536,-2236,-867,-1059,1007,2024-01-24 10:48:43,0.0
-14164,396,-1500,-980,-2449,617,2024-01-24 10:48:43,0.0
-13788,676,-1160,-1077,-3226,164,2024-01-24 10:48:43,0.0
-13656,508,140,-1135,-3674,-231,2024-01-24 10:48:43,0.0
-13904,504,-40,-836,-3647,-349,2024-01-24 10:48:43,0.0
-13648,788,-528,-785,-3441,-258,2024-01-24 10:48:44,0.0
-13376,836,64,-903,-2859,23,2024-01-24 10:48:44,0.0
-14048,564,836,-869,-1553,444,2024-01-24 10:48:44,0.0
-14252,232,1392,-950,-593,893,2024-01-24 10:48:44,0.0
-14152,600,1664,-1013,-28,1252,2024-01-24 10:48:44,0.0
-13152,588,1896,-928,600,1274,2024-01-24 10:48:44,0.0
-13056,516,1856,-616,1108,1005,2024-01-24 10:48:44,0.0
-13248,784,1492,-122,1356,900,2024-01-24 10:48:44,0.0
-13352,840,1328,214,957,723,2024-01-24 10:48:44,0.0
-13132,1008,1336,515,564,544,2024-01-24 10:48:44,0.0
-13720,880,1212,534,343,216,2024-01-24 10:48:44,0.0
-13604,888,956,461,-346,-64,2024-01-24 10:48:44,0.0
-13000,852,1144,334,-714,-302,2024-01-24 10:48:44,0.0
-12304,1064,980,223,-495,-590,2024-01-24 10:48:44,0.0
-12276,1104,288,100,672,-801,2024-01-24 10:48:44,0.0
-13836,1100,416,153,836,-972,2024-01-24 10:48:44,0.0
-14596,836,-72,60,692,-998,2024-01-24 10:48:44,0.0
-15612,136,68,141,567,-801,2024-01-24 10:48:44,0.0
-15664,-492,412,182,188,-542,2024-01-24 10:48:44,0.0
-15076,-824,552,171,74,-207,2024-01-24 10:48:44,0.0
-14120,20,540,202,606,445,2024-01-24 10:48:44,0.0
-13408,424,424,282,919,728,2024-01-24 10:48:44,0.0
-13184,840,388,396,942,754,2024-01-24 10:48:44,0.0
-12888,764,212,586,922,507,2024-01-24 10:48:44,0.0
-12920,496,220,724,1171,282,2024-01-24 10:48:44,0.0
-12824,260,-144,875,1334,69,2024-01-24 10:48:44,0.0
-12852,64,100,1041,1448,-199,2024-01-24 10:48:44,0.0
-12884,-200,-140,1184,1551,-459,2024-01-24 10:48:44,0.0
-13544,-280,-236,1161,1536,-684,2024-01-24 10:48:44,0.0
-14140,-276,-336,1049,1044,-711,2024-01-24 10:48:44,0.0
-14852,0,-472,907,486,-578,2024-01-24 10:48:44,0.0
-14948,216,-948,676,44,-373,2024-01-24 10:48:44,0.0
-14144,324,-1136,331,-343,-362,2024-01-24 10:48:44,0.0
-13864,416,-652,50,-377,-328,2024-01-24 10:48:44,0.0
-13280,504,-644,-176,-408,-364,2024-01-24 10:48:44,0.0
-13368,224,-296,-346,-302,-433,2024-01-24 10:48:44,0.0
-13744,-168,-240,-439,-75,-487,2024-01-24 10:48:44,0.0
-13696,-444,-120,-361,124,-411,2024-01-24 10:48:44,0.0
-13760,-652,-464,-317,391,-346,2024-01-24 10:48:44,0.0
-13528,-548,-400,-361,433,-171,2024-01-24 10:48:44,0.0
-13432,-536,20,-301,522,-80,2024-01-24 10:48:44,0.0
-13636,-252,108,-225,385,-87,2024-01-24 10:48:44,0.0
-13376,-204,-80,-107,332,-133,2024-01-24 10:48:44,0.0
-13364,16,-140,63,832,-245,2024-01-24 10:48:44,0.0
-13936,-72,-348,113,930,-240,2024-01-24 10:48:44,0.0
-14172,-88,-344,54,649,-214,2024-01-24 10:48:44,0.0
-14256,-212,-316,-3,381,-200,2024-01-24 10:48:44,0.0
-14132,-208,-312,-93,218,-172,2024-01-24 10:48:44,0.0
-13876,-44,-208,-222,104,-166,2024-01-24 10:48:44,0.0
-13752,80,-292,-318,-7,-249,2024-01-24 10:48:44,0.0
-13896,-124,-12,-432,-211,-404,2024-01-24 10:48:44,0.0
-13864,-352,-44,-468,-396,-480,2024-01-24 10:48:44,0.0
-13776,-412,136,-425,-491,-538,2024-01-24 10:48:44,0.0
-13724,-416,428,-349,-543,-554,2024-01-24 10:48:44,0.0
-13688,-408,148,-353,-449,-525,2024-01-24 10:48:44,0.0
-13760,-432,52,-266,-292,-518,2024-01-24 10:48:44,0.0
-13600,-436,-64,-202,-271,-487,2024-01-24 10:48:44,0.0
-13740,-400,4,-116,-209,-416,2024-01-24 10:48:44,0.0
-13752,-216,160,55,-177,-429,2024-01-24 10:48:45,0.0
-13860,-228,136,138,-217,-382,2024-01-24 10:48:45,0.0
-13828,-252,72,153,-180,-354,2024-01-24 10:48:45,0.0
-13896,-196,-84,176,-140,-365,2024-01-24 10:48:45,0.0
-13840,-144,76,160,-141,-323,2024-01-24 10:48:45,0.0
-13792,-244,0,48,-195,-310,2024-01-24 10:48:45,0.0
-13672,-208,56,-76,-269,-278,2024-01-24 10:48:45,0.0
-13696,-188,72,-82,-220,-224,2024-01-24 10:48:45,0.0
-13664,-204,72,-111,-196,-216,2024-01-24 10:48:45,0.0
-13736,-168,92,-131,-162,-233,2024-01-24 10:48:45,0.0
-13688,-252,168,-168,-77,-239,2024-01-24 10:48:45,0.0
-13692,-324,208,-217,20,-231,2024-01-24 10:48:45,0.0
-13748,-212,220,-284,18,-208,2024-01-24 10:48:45,0.0
-13864,-224,276,-260,55,-183,2024-01-24 10:48:45,0.0
-13852,-268,236,-307,68,-179,2024-01-24 10:48:45,0.0
-13748,-292,104,-295,69,-137,2024-01-24 10:48:45,0.0
-13736,-312,272,-291,86,-131,2024-01-24 10:48:45,0.0
-13792,-328,316,-293,37,-147,2024-01-24 10:48:45,0.0
-13900,-352,340,-308,-29,-91,2024-01-24 10:48:45,0.0
-13836,-372,112,-307,-233,-75,2024-01-24 10:48:45,
-13688,-452,336,-318,-392,-88,2024-01-24 10:48:45,0.0
-13804,-392,372,-336,-355,-103,2024-01-24 10:48:45,0.0
-13792,-468,476,-295,-225,-133,2024-01-24 10:48:45,0.0
-13888,-336,408,-258,-179,-145,2024-01-24 10:48:45,0.0
-13852,-212,456,-263,-188,-118,2024-01-24 10:48:45,0.0
-13748,-304,468,-255,-57,-161,2024-01-24 10:48:45,0.0
-13784,-240,340,-295,-2,-127,2024-01-24 10:48:45,0.0
-13756,-160,360,-349,52,-163,2024-01-24 10:48:45,0.0
-13832,-200,408,-356,129,-148,2024-01-24 10:48:45,0.0
-13764,-212,648,-424,135,-172,2024-01-24 10:48:45,0.0
-13756,-80,452,-423,110,-144,2024-01-24 10:48:45,0.0
-13700,-252,540,-455,113,-138,2024-01-24 10:48:45,0.0
-13724,-280,552,-451,71,-161,2024-01-24 10:48:45,0.0
-13692,-148,320,-472,159,-171,2024-01-24 10:48:45,0.0
-13648,-204,596,-469,295,-203,2024-01-24 10:48:45,0.0
-13712,-164,456,-502,319,-205,2024-01-24 10:48:45,0.0
-13848,-216,500,-531,324,-192,2024-01-24 10:48:45,0.0
-13920,-124,396,-495,320,-176,2024-01-24 10:48:45,0.0
-13888,-172,448,-529,293,-157,2024-01-24 10:48:45,0.0
-13788,-268,488,-491,259,-202,2024-01-24 10:48:45,0.0
-13916,-160,508,-486,199,-118,2024-01-24 10:48:45,0.0
-13760,-104,432,-516,136,-148,2024-01-24 10:48:45,0.0
-13748,-108,360,-511,43,-189,2024-01-24 10:48:45,0.0
-13708,-60,196,-543,117,-202,2024-01-24 10:48:45,0.0
-13916,-72,304,-587,6,-204,2024-01-24 10:48:45,0.0
-13868,-116,416,-606,-28,-200,2024-01-24 10:48:45,0.0
-13884,-212,468,-599,-95,-138,2024-01-24 10:48:45,0.0
-14008,-164,360,-615,-321,-150,2024-01-24 10:48:45,0.0
-14004,-188,588,-669,-545,-84,2024-01-24 10:48:45,0.0
-13884,-212,672,-705,-630,-103,2024-01-24 10:48:45,0.0
-13636,-136,552,-653,-500,-87,2024-01-24 10:48:45,0.0
-13644,-192,696,-605,-263,-179,2024-01-24 10:48:45,0.0
-13748,-236,516,-590,-273,-236,2024-01-24 10:48:45,0.0
-13900,-240,636,-530,-325,-236,2024-01-24 10:48:45,0.0
-13912,-296,660,-468,-239,-176,2024-01-24 10:48:45,0.0
-13836,-392,888,-358,-81,-138,2024-01-24 10:48:45,0.0
-13856,-300,1024,-247,177,-101,2024-01-24 10:48:45,0.0
-13744,-296,796,-88,354,-139,2024-01-24 10:48:45,0.0
-13996,-240,780,-81,279,-92,2024-01-24 10:48:45,0.0
-14232,-168,456,-154,21,-125,2024-01-24 10:48:46,0.0
-14128,-120,572,-228,-603,-132,2024-01-24 10:48:46,0.0
-14088,-228,436,-271,-932,-296,2024-01-24 10:48:46,0.0
-14140,-200,912,-223,-1030,-280,2024-01-24 10:48:46,0.0
-14152,-128,712,-264,-1057,-309,2024-01-24 10:48:46,0.0
-14016,-208,708,-283,-1026,-169,2024-01-24 10:48:46,0.0
-13832,-84,808,-338,-993,-117,2024-01-24 10:48:46,0.0
-13688,12,988,-346,-878,-60,2024-01-24 10:48:46,0.0
-13508,176,1104,-366,-722,-78,2024-01-24 10:48:46,0.0
-13592,12,1196,-269,-451,-206,2024-01-24 10:48:46,0.0
-13732,-128,1368,-203,-291,-250,2024-01-24 10:48:46,0.0
-13676,-184,1136,-160,-37,-305,2024-01-24 10:48:46,0.0
-13860,-80,820,-205,-242,-242,2024-01-24 10:48:46,0.0
-13896,44,856,-216,-578,-202,2024-01-24 10:48:46,0.0
-13884,96,792,-220,-762,-154,2024-01-24 10:48:46,0.0
-13940,160,916,-320,-915,-125,2024-01-24 10:48:46,0.0
-13832,192,1020,-453,-1060,-108,2024-01-24 10:48:46,0.0
-13928,132,1300,-539,-1251,-130,2024-01-24 10:48:46,0.0
-14064,128,1460,-620,-1271,-48,2024-01-24 10:48:46,0.0
-13920,4,1708,-624,-1114,-24,2024-01-24 10:48:46,0.0
-14040,-180,1660,-619,-805,20,2024-01-24 10:48:46,0.0
-13916,-108,1392,-651,-840,11,2024-01-24 10:48:46,0.0
-14048,-100,1544,-737,-1014,-21,2024-01-24 10:48:46,0.0
-13484,-76,1264,-751,-807,-55,2024-01-24 10:48:46,0.0
-13476,-68,1288,-790,-728,-96,2024-01-24 10:48:46,0.0
-13732,36,1308,-826,-747,-110,2024-01-24 10:48:46,0.0
-14000,-32,1496,-809,-797,-131,2024-01-24 10:48:46,0.0
-13944,-80,1576,-795,-758,-132,2024-01-24 10:48:46,0.0
-13916,-52,1736,-771,-494,-128,2024-01-24 10:48:46,0.0
-13848,-148,1588,-827,-370,-109,2024-01-24 10:48:46,0.0
-13824,-172,1452,-839,-161,-73,2024-01-24 10:48:46,0.0
-13732,-208,1460,-886,-24,-8,2024-01-24 10:48:46,0.0
-13672,-104,1176,-951,-240,-75,2024-01-24 10:48:46,0.0
-13600,-80,1392,-927,-325,-68,2024-01-24 10:48:46,0.0
-13684,-188,1684,-963,-215,0,2024-01-24 10:48:46,0.0
-13588,-264,1724,-890,-77,43,2024-01-24 10:48:46,0.0
-13568,-300,1780,-902,61,37,2024-01-24 10:48:46,0.0
-13612,-264,1884,-850,167,-2,2024-01-24 10:48:46,0.0
-13540,-116,1956,-695,409,-57,2024-01-24 10:48:46,0.0
-13532,-228,2184,-620,923,-141,2024-01-24 10:48:46,0.0
-13740,-212,2000,-499,1573,-120,2024-01-24 10:48:46,0.0
-14176,-60,1344,-472,1434,-73,2024-01-24 10:48:46,0.0
-14168,-104,1212,-517,649,-93,2024-01-24 10:48:46,0.0
-14144,-128,1084,-514,72,-73,2024-01-24 10:48:46,0.0
-13964,-132,1328,-569,-98,-88,2024-01-24 10:48:46,0.0
-13916,-148,1440,-582,-105,-75,2024-01-24 10:48:46,0.0
-13952,-96,1464,-622,-215,-68,2024-01-24 10:48:46,0.0
-13748,-104,1596,-608,-162,-56,2024-01-24 10:48:46,0.0
-13540,-244,2180,-508,128,-91,2024-01-24 10:48:46,0.0
-13628,-356,2140,-389,491,-188,2024-01-24 10:48:46,0.0
-13732,-316,1828,-258,646,-165,2024-01-24 10:48:46,0.0
-13752,-336,1688,-162,624,-172,2024-01-24 10:48:46,0.0
-13892,-304,1604,-158,391,-172,2024-01-24 10:48:46,0.0
-13660,-324,1508,-96,64,-236,2024-01-24 10:48:46,0.0
-13948,-244,1800,-40,27,-231,2024-01-24 10:48:46,0.0
-14024,-336,1888,40,-71,-231,2024-01-24 10:48:46,0.0
-14104,-216,1712,105,-297,-209,2024-01-24 10:48:46,0.0
-14068,-224,1724,176,-446,-207,2024-01-24 10:48:46,0.0
-13872,-64,1580,216,-367,-161,2024-01-24 10:48:46,0.0
-13740,-56,1816,218,-177,-223,2024-01-24 10:48:47,0.0
-13692,-164,1840,283,64,-229,2024-01-24 10:48:47,
-13992,-28,1600,278,-194,-264,2024-01-24 10:48:47,0.0
-13904,-136,1524,257,-557,-305,2024-01-24 10:48:47,0.0
-14068,-60,1656,330,-711,-308,2024-01-24 10:48:47,0.0
-13700,-164,1784,290,-812,-313,2024-01-24 10:48:47,0.0
-13780,-192,1928,299,-790,-320,2024-01-24 10:48:47,0.0
-14116,-120,1840,244,-783,-276,2024-01-24 10:48:47,0.0
-13992,-32,2032,219,-888,-215,2024-01-24 10:48:47,0.0
-13840,24,2104,242,-796,-195,2024-01-24 10:48:47,0.0
-13628,-8,2196,222,-535,-199,2024-01-24 10:48:47,0.0
-13532,-52,2292,162,-125,-219,2024-01-24 10:48:47,0.0
-13764,4,2468,200,229,-247,2024-01-24 10:48:47,0.0
-13620,-108,2352,212,592,-270,2024-01-24 10:48:47,0.0
-13696,-96,2032,187,797,-298,2024-01-24 10:48:47,0.0
-13564,-148,2200,220,1037,-303,2024-01-24 10:48:47,0.0
-13792,-88,1864,184,1035,-319,2024-01-24 10:48:47,0.0
-13888,4,1816,120,788,-269,2024-01-24 10:48:47,0.0
-14008,116,1852,86,598,-245,2024-01-24 10:48:47,0.0
-14000,184,1732,27,481,-226,2024-01-24 10:48:47,0.0
-13876,-84,1804,-84,397,-222,2024-01-24 10:48:47,0.0
-13828,-24,1808,-176,430,-204,2024-01-24 10:48:47,0.0
-13888,-156,1764,-208,466,-189,2024-01-24 10:48:47,0.0
-13888,-144,1776,-249,485,-170,2024-01-24 10:48:47,0.0
-13856,-80,2204,-183,583,-146,2024-01-24 10:48:47,0.0
-13808,4,2160,-73,793,-186,2024-01-24 10:48:47,0.0
-13784,-236,2040,28,872,-250,2024-01-24 10:48:47,0.0
-13644,-332,1908,20,1039,-330,2024-01-24 10:48:47,0.0
-13748,-172,1344,-64,902,-396,2024-01-24 10:48:47,0.0
-13788,-96,1420,-127,541,-420,2024-01-24 10:48:47,0.0
-13912,0,1756,-152,490,-371,2024-01-24 10:48:47,0.0
-14220,236,1344,-234,262,-258,2024-01-24 10:48:47,0.0
-14136,172,1144,-440,-271,-141,2024-01-24 10:48:47,0.0
-13876,64,1572,-591,-267,-35,2024-01-24 10:48:47,0.0
-13592,-28,2380,-621,814,95,2024-01-24 10:48:47,0.0
-13200,468,2124,-580,2293,130,2024-01-24 10:48:47,0.0
-13760,168,1024,-503,2033,-26,2024-01-24 10:48:47,0.0
-14224,-232,1580,-670,721,-97,2024-01-24 10:48:47,0.0
-13980,-292,2048,-623,450,-99,2024-01-24 10:48:47,0.0
-13996,-396,2048,-547,368,-128,2024-01-24 10:48:47,0.0
-13620,-332,1912,-413,395,-136,2024-01-24 10:48:47,0.0
-13580,-364,1924,-326,657,-147,2024-01-24 10:48:47,0.0
-13644,-292,2116,-243,956,-137,2024-01-24 10:48:47,0.0
-13640,-264,1920,-209,1357,-214,2024-01-24 10:48:47,0.0
-13680,-240,1940,-88,1712,-255,2024-01-24 10:48:47,0.0
-13852,28,1768,-51,2052,-244,2024-01-24 10:48:47,0.0
-14096,-128,1556,11,1942,-225,2024-01-24 10:48:47,0.0
-14080,-28,1172,-78,1597,-185,2024-01-24 10:48:47,0.0
-14052,60,1200,-176,1246,-198,2024-01-24 10:48:47,0.0
-13956,4,1140,-251,979,-200,2024-01-24 10:48:47,0.0
-13868,-36,876,-303,844,-202,2024-01-24 10:48:47,0.0
-13892,-64,1176,-367,821,-171,2024-01-24 10:48:47,0.0
-13940,-92,1236,-382,708,-204,2024-01-24 10:48:47,0.0
-13984,-144,1288,-362,674,-190,2024-01-24 10:48:47,0.0
-13992,-244,1192,-403,718,-202,2024-01-24 10:48:47,0.0
-14260,-268,1064,-407,402,-201,2024-01-24 10:48:47,0.0
-14212,-200,920,-389,-65,-177,2024-01-24 10:48:47,0.0
-14088,-112,856,-322,-451,-131,2024-01-24 10:48:47,0.0
-13872,-180,1248,-276,-600,-71,2024-01-24 10:48:47,0.0
-13760,-200,1016,-285,-391,-47,2024-01-24 10:48:48,0.0
-13620,-204,1252,-234,-183,-33,2024-01-24 10:48:48,0.0
-13704,-216,1128,-192,-79,-37,2024-01-24 10:48:48,0.0
-13672,-224,1184,-187,-19,-79,2024-01-24 10:48:48,0.0
-13488,-88,1372,-168,91,-78,2024-01-24 10:48:48,0.0
-13376,-100,1380,-163,382,-129,2024-01-24 10:48:48,0.0
-13588,-40,1300,-157,658,-173,2024-01-24 10:48:48,0.0
-13616,-140,1228,-259,673,-223,2024-01-24 10:48:48,0.0
-13716,-32,1064,-317,681,-229,2024-01-24 10:48:48,0.0
-13756,36,1172,-334,689,-206,2024-01-24 10:48:48,0.0
-13876,-24,988,-357,671,-145,2024-01-24 10:48:48,0.0
-13884,-84,1068,-341,711,-105,2024-01-24 10:48:48,0.0
-13876,-76,888,-357,743,-120,2024-01-24 10:48:48,0.0
-13808,-84,968,-366,754,-131,2024-01-24 10:48:48,0.0
-13884,-36,1048,-350,701,-149,2024-01-24 10:48:48,0.0
-13868,8,1064,-321,708,-171,2024-01-24 10:48:48,0.0
-13900,64,864,-310,723,-202,2024-01-24 10:48:48,0.0
-13876,80,968,-316,638,-193,2024-01-24 10:48:48,0.0
-13784,-72,976,-267,570,-205,2024-01-24 10:48:48,0.0
-13924,-160,1144,-257,624,-158,2024-01-24 10:48:48,0.0
-13852,28,736,-240,601,-194,2024-01-24 10:48:48,0.0
-13808,72,816,-265,569,-196,2024-01-24 10:48:48,0.0
-13848,12,996,-237,566,-173,2024-01-24 10:48:48,0.0
-13816,56,932,-216,618,-160,2024-01-24 10:48:48,0.0
-13696,-76,808,-177,684,-172,2024-01-24 10:48:48,0.0
-13768,-212,932,-139,734,-194,2024-01-24 10:48:48,0.0
-13812,-272,772,-119,770,-256,2024-01-24 10:48:48,0.0
-13832,-272,844,-14,671,-237,2024-01-24 10:48:48,0.0
-13724,-184,1028,82,653,-227,2024-01-24 10:48:48,0.0
-13700,-84,784,252,816,-188,2024-01-24 10:48:48,0.0
-13640,-156,668,345,1055,-236,2024-01-24 10:48:48,0.0
-13752,-168,544,401,1303,-343,2024-01-24 10:48:48,0.0
-14096,-208,380,377,1075,-315,2024-01-24 10:48:48,0.0
-14172,-136,460,400,659,-263,2024-01-24 10:48:48,0.0
-14024,-92,688,474,291,-205,2024-01-24 10:48:48,0.0
-13812,-100,716,475,158,-197,2024-01-24 10:48:48,0.0
-13796,-104,576,485,189,-223,2024-01-24 10:48:48,0.0
-13628,-260,656,549,275,-252,2024-01-24 10:48:48,0.0
-13740,-180,676,599,279,-246,2024-01-24 10:48:48,0.0
-13904,-108,620,642,172,-265,2024-01-24 10:48:48,0.0
-13876,-84,720,679,43,-246,2024-01-24 10:48:48,0.0
-13864,-56,696,611,-108,-243,2024-01-24 10:48:48,0.0
-13816,-8,676,584,-172,-219,2024-01-24 10:48:48,
-13952,-60,628,538,-122,-244,2024-01-24 10:48:48,0.0
-13948,44,244,490,-236,-204,2024-01-24 10:48:48,0.0
-13976,128,376,404,-148,-169,2024-01-24 10:48:48,0.0
-14044,204,192,275,-104,-132,2024-01-24 10:48:48,0.0
-13880,112,204,138,-235,-97,2024-01-24 10:48:48,0.0
-13928,-8,432,94,-248,-78,2024-01-24 10:48:48,0.0
-13696,-184,572,77,-136,-46,2024-01-24 10:48:48,0.0
-13764,-104,732,32,-18,-55,2024-01-24 10:48:48,0.0
-13556,-84,708,78,127,-84,2024-01-24 10:48:48,0.0
-13384,-176,860,78,283,-99,2024-01-24 10:48:48,0.0
-13496,-148,860,50,395,-193,2024-01-24 10:48:48,0.0
-13460,-152,916,17,474,-244,2024-01-24 10:48:48,0.0
-13704,-80,1128,-66,598,-282,2024-01-24 10:48:48,0.0
-13852,-304,1064,-69,473,-311,2024-01-24 10:48:48,0.0
-13880,-268,908,-46,457,-254,2024-01-24 10:48:48,0.0
-14028,-284,836,-39,442,-154,2024-01-24 10:48:48,0.0
-14016,-280,708,-50,346,-150,2024-01-24 10:48:49,0.0
-14000,-324,828,3,307,-109,2024-01-24 10:48:49,0.0
-13940,-232,668,50,242,-95,2024-01-24 10:48:49,0.0
-13956,-200,672,70,98,-122,2024-01-24 10:48:49,0.0
-13768,-128,588,96,-85,-147,2024-01-24 10:48:49,0.0
-13872,-212,576,145,-73,-158,2024-01-24 10:48:49,0.0
-13748,-108,640,169,-86,-193,2024-01-24 10:48:49,0.0
-13788,-128,540,248,-239,-214,2024-01-24 10:48:49,0.0
-13808,-140,552,248,-434,-279,2024-01-24 10:48:49,0.0
-13864,-64,596,200,-733,-323,2024-01-24 10:48:49,0.0
-13764,-108,680,44,-693,-337,2024-01-24 10:48:49,0.0
-13880,-44,692,-102,-337,-283,2024-01-24 10:48:49,0.0
-13964,-8,700,-180,-215,-200,2024-01-24 10:48:49,0.0
-13988,36,840,-282,-181,-144,2024-01-24 10:48:49,0.0
-13924,-8,736,-292,-173,-83,2024-01-24 10:48:49,0.0
-13900,-52,684,-293,-105,-75,2024-01-24 10:48:49,0.0
-13824,-72,656,-289,-13,-91,2024-01-24 10:48:49,0.0
-13680,-148,692,-277,132,-114,2024-01-24 10:48:49,0.0
-13616,-76,504,-340,251,-150,2024-01-24 10:48:49,0.0
-13676,-56,748,-364,470,-139,2024-01-24 10:48:49,0.0
-13688,12,676,-396,736,-177,2024-01-24 10:48:49,0.0
-13692,-56,832,-400,888,-103,2024-01-24 10:48:49,0.0
-13740,-72,768,-456,951,-57,2024-01-24 10:48:49,0.0
-13552,-60,816,-484,1020,-57,2024-01-24 10:48:49,0.0
-13620,-188,784,-551,1075,-40,2024-01-24 10:48:49,0.0
-13608,-304,920,-550,1121,-71,2024-01-24 10:48:49,0.0
-13752,-312,916,-537,1105,-100,2024-01-24 10:48:49,0.0
-13852,-360,904,-481,1024,-92,2024-01-24 10:48:49,0.0
-13808,-160,932,-447,912,-85,2024-01-24 10:48:49,0.0
-13916,-232,912,-390,845,-109,2024-01-24 10:48:49,0.0
-14008,-168,780,-364,823,-155,2024-01-24 10:48:49,0.0
-13984,-208,728,-337,745,-226,2024-01-24 10:48:49,0.0
-14088,-168,648,-358,574,-264,2024-01-24 10:48:49,0.0
-14124,-164,712,-291,446,-281,2024-01-24 10:48:49,0.0
-14076,-228,664,-247,346,-240,2024-01-24 10:48:49,0.0
-14008,-140,728,-166,194,-303,2024-01-24 10:48:49,0.0
-13844,-84,504,-155,174,-314,2024-01-24 10:48:49,0.0
-13852,-40,448,-172,205,-363,2024-01-24 10:48:49,0.0
-13852,-148,344,-180,308,-422,2024-01-24 10:48:49,0.0
-13660,-256,348,-233,451,-454,2024-01-24 10:48:49,0.0
-13624,-184,464,-262,526,-457,2024-01-24 10:48:49,0.0
-13712,12,704,-244,564,-397,2024-01-24 10:48:49,0.0
-13732,124,624,-229,693,-340,2024-01-24 10:48:49,0.0
-13852,136,532,-216,711,-244,2024-01-24 10:48:49,0.0
-13948,168,524,-231,627,-183,2024-01-24 10:48:49,0.0
-13804,128,676,-254,396,-146,2024-01-24 10:48:49,0.0
-13736,32,284,-279,402,-73,2024-01-24 10:48:49,0.0
-13720,-28,388,-292,424,-19,2024-01-24 10:48:49,0.0
-13624,-36,344,-273,404,-24,2024-01-24 10:48:49,0.0
-13832,-172,312,-253,476,-14,2024-01-24 10:48:49,0.0
-13724,-328,280,-243,485,-84,2024-01-24 10:48:49,0.0
-13636,-348,260,-275,506,-156,2024-01-24 10:48:49,0.0
-13672,-292,448,-248,568,-222,2024-01-24 10:48:49,0.0
-13672,-228,220,-207,679,-251,2024-01-24 10:48:49,0.0
-13792,-316,224,-221,720,-266,2024-01-24 10:48:49,0.0
-13832,-168,216,-218,641,-250,2024-01-24 10:48:49,0.0
-14008,-196,224,-202,541,-275,2024-01-24 10:48:49,0.0
-13976,-368,116,-205,460,-239,2024-01-24 10:48:49,0.0
-13952,-252,280,-147,371,-226,2024-01-24 10:48:49,0.0
-13880,-296,236,-98,347,-166,2024-01-24 10:48:49,0.0
-13748,-316,316,-24,362,-149,2024-01-24 10:48:50,0.0
-13592,-260,288,25,377,-141,2024-01-24 10:48:50,0.0
-13692,-164,292,65,405,-158,2024-01-24 10:48:50,0.0
-13672,-108,312,101,391,-159,2024-01-24 10:48:50,0.0
-13692,-120,264,71,351,-213,2024-01-24 10:48:50,0.0
-13704,-84,140,91,351,-221,2024-01-24 10:48:50,0.0
-13832,-204,76,41,419,-234,2024-01-24 10:48:50,0.0
-13836,-196,68,-16,417,-246,2024-01-24 10:48:50,0.0
-13712,-176,164,-58,434,-201,2024-01-24 10:48:50,0.0
-13752,-216,208,-79,476,-200,2024-01-24 10:48:50,0.0
-13716,-200,136,-103,464,-174,2024-01-24 10:48:50,0.0
-13796,-288,140,-140,458,-185,2024-01-24 10:48:50,0.0
-13748,-172,160,-159,405,-155,2024-01-24 10:48:50,0.0
-13836,-132,368,-156,383,-159,2024-01-24 10:48:50,0.0
-13824,-208,268,-137,324,-120,2024-01-24 10:48:50,0.0
-13912,-184,256,-103,256,-114,2024-01-24 10:48:50,0.0
-13872,-24,272,-98,179,-85,2024-01-24 10:48:50,0.0
-13940,-96,72,-89,105,-87,2024-01-24 10:48:50,0.0
-13912,-132,176,-161,36,-68,2024-01-24 10:48:50,0.0
-13944,-148,216,-154,-64,-67,2024-01-24 10:48:50,0.0
-13804,-120,224,-164,-77,-98,2024-01-24 10:48:50,0.0
-13764,8,196,-228,-6,-111,2024-01-24 10:48:50,0.0
-13704,4,136,-234,70,-112,2024-01-24 10:48:50,0.0
-13688,-76,136,-298,108,-112,2024-01-24 10:48:50,
-13796,-192,156,-337,122,-169,2024-01-24 10:48:50,0.0
-13672,-200,248,-377,113,-214,2024-01-24 10:48:50,0.0
-13768,-72,200,-439,126,-221,2024-01-24 10:48:50,0.0
-13664,8,104,-508,202,-218,2024-01-24 10:48:50,0.0
-13820,-32,280,-511,121,-220,2024-01-24 10:48:50,0.0
-13904,-84,360,-507,38,-219,2024-01-24 10:48:50,0.0
-13984,-208,228,-443,-213,-219,2024-01-24 10:48:50,0.0
-13728,-268,164,-440,-406,-237,2024-01-24 10:48:50,0.0
-13800,-320,160,-385,-471,-251,2024-01-24 10:48:50,0.0
-13552,-320,216,-396,-371,-344,2024-01-24 10:48:50,0.0
-13776,-156,272,-341,-364,-322,2024-01-24 10:48:50,0.0
-13792,-168,268,-345,-223,-331,2024-01-24 10:48:50,0.0
-13824,-140,420,-339,-127,-305,2024-01-24 10:48:50,0.0
-13764,-76,216,-363,-104,-296,2024-01-24 10:48:50,0.0
-13744,-236,336,-375,-115,-263,2024-01-24 10:48:50,0.0
-13756,-176,480,-375,-142,-260,2024-01-24 10:48:50,0.0
-13716,-64,336,-352,-133,-206,2024-01-24 10:48:50,0.0
-13624,-176,420,-356,-43,-220,2024-01-24 10:48:50,0.0
-13664,-240,476,-313,0,-203,2024-01-24 10:48:50,0.0
-13652,-192,468,-224,-30,-167,2024-01-24 10:48:50,0.0
-13744,-220,356,-163,-45,-173,2024-01-24 10:48:50,0.0
-13932,-184,608,-103,-17,-153,2024-01-24 10:48:50,0.0
-13864,-228,420,6,-92,-166,2024-01-24 10:48:50,0.0
-13844,-144,536,73,-178,-140,2024-01-24 10:48:50,0.0
-13788,-108,516,89,-213,-182,2024-01-24 10:48:50,0.0
-13780,-176,408,72,-150,-161,2024-01-24 10:48:50,0.0
-13776,-200,372,40,-71,-185,2024-01-24 10:48:50,0.0
-13672,-80,564,17,6,-187,2024-01-24 10:48:50,0.0
-13820,-164,520,31,-18,-137,2024-01-24 10:48:50,0.0
-13732,-120,440,-4,-107,-157,2024-01-24 10:48:50,0.0
-13764,-184,552,10,-119,-144,2024-01-24 10:48:50,0.0
-13776,-116,572,-6,-89,-156,2024-01-24 10:48:50,0.0
-13620,-132,600,26,27,-163,2024-01-24 10:48:50,0.0
-13756,-152,592,37,152,-176,2024-01-24 10:48:50,0.0
-13756,-168,524,45,276,-153,2024-01-24 10:48:51,0.0
-13800,-152,660,60,305,-123,2024-01-24 10:48:51,0.0
-13908,-140,652,28,319,-114,2024-01-24 10:48:51,0.0
-13868,-112,680,41,233,-109,2024-01-24 10:48:51,0.0
-13776,-128,428,68,141,-140,2024-01-24 10:48:51,0.0
-13920,-156,460,50,189,-139,2024-01-24 10:48:51,0.0
-13808,-132,404,0,208,-189,2024-01-24 10:48:51,0.0
-13808,-152,584,4,225,-213,2024-01-24 10:48:51,0.0
-13880,-52,588,-34,200,-212,2024-01-24 10:48:51,0.0
-13872,-176,556,-61,192,-214,2024-01-24 10:48:51,0.0
-13844,-220,628,-108,208,-216,2024-01-24 10:48:51,0.0
-13796,-232,500,-135,155,-215,2024-01-24 10:48:51,0.0
-13848,-216,620,-119,148,-199,2024-01-24 10:48:51,0.0
-13844,-212,420,-138,109,-199,2024-01-24 10:48:51,0.0
-13884,-192,504,-157,57,-194,2024-01-24 10:48:51,0.0
-13860,-156,456,-194,98,-169,2024-01-24 10:48:51,0.0
-13748,-116,624,-203,114,-157,2024-01-24 10:48:51,0.0
-13736,-52,368,-201,127,-142,2024-01-24 10:48:51,0.0
-13848,-140,416,-205,186,-146,2024-01-24 10:48:51,0.0
-13852,-236,368,-214,197,-157,2024-01-24 10:48:51,0.0
-13776,-140,548,-235,205,-142,2024-01-24 10:48:51,0.0
-13748,-168,668,-270,247,-156,2024-01-24 10:48:51,0.0
-13840,-152,468,-270,225,-138,2024-01-24 10:48:51,0.0
-13804,-140,692,-327,253,-160,2024-01-24 10:48:51,0.0
-13724,-76,600,-411,277,-150,2024-01-24 10:48:51,0.0
-13900,-92,580,-426,311,-178,2024-01-24 10:48:51,0.0
-13756,-64,476,-487,327,-175,2024-01-24 10:48:51,0.0
-13836,-152,652,-534,347,-182,2024-01-24 10:48:51,0.0
-13812,-64,552,-538,389,-166,2024-01-24 10:48:51,0.0
-13792,-168,692,-542,416,-173,2024-01-24 10:48:51,0.0
-13780,-192,572,-535,500,-169,2024-01-24 10:48:51,0.0
-13720,-168,484,-504,549,-201,2024-01-24 10:48:51,0.0
-13756,-192,600,-489,579,-183,2024-01-24 10:48:51,0.0
-13852,-260,640,-425,612,-193,2024-01-24 10:48:51,0.0
-13712,-164,496,-376,594,-216,2024-01-24 10:48:51,0.0
-13680,-112,532,-369,633,-217,2024-01-24 10:48:51,0.0
-13924,-172,580,-390,620,-183,2024-01-24 10:48:51,0.0
-13904,-304,484,-390,560,-208,2024-01-24 10:48:51,0.0
-13876,-212,480,-351,461,-147,2024-01-24 10:48:51,0.0
-13760,-292,512,-334,397,-149,2024-01-24 10:48:51,0.0
-13732,-136,460,-276,372,-121,2024-01-24 10:48:51,0.0
-13776,-204,416,-274,436,-176,2024-01-24 10:48:51,0.0
-13736,-248,360,-286,475,-160,2024-01-24 10:48:51,0.0
-13920,-192,300,-286,466,-161,2024-01-24 10:48:51,0.0
-13900,-244,420,-293,437,-116,2024-01-24 10:48:51,0.0
-13828,-120,284,-301,423,-123,2024-01-24 10:48:51,0.0
-13824,-236,316,-316,436,-113,2024-01-24 10:48:51,0.0
-13860,-184,312,-290,422,-110,2024-01-24 10:48:51,0.0
-13852,-196,280,-309,422,-115,2024-01-24 10:48:51,0.0
-13764,-144,312,-293,389,-147,2024-01-24 10:48:51,0.0
-13792,-272,204,-302,377,-152,2024-01-24 10:48:51,0.0
-13732,-20,352,-295,371,-169,2024-01-24 10:48:51,0.0
-13724,-260,248,-242,414,-171,2024-01-24 10:48:51,0.0
-13784,-200,268,-244,453,-203,2024-01-24 10:48:51,0.0
-13876,-104,236,-231,434,-172,2024-01-24 10:48:51,0.0
-13924,-60,100,-229,323,-173,2024-01-24 10:48:51,0.0
-13724,-100,120,-219,273,-187,2024-01-24 10:48:51,0.0
-13744,-56,-40,-253,204,-201,2024-01-24 10:48:51,0.0
-13784,-116,152,-220,147,-216,2024-01-24 10:48:52,0.0
-13796,-220,128,-214,127,-197,2024-01-24 10:48:52,0.0
-13740,-196,264,-209,91,-172,2024-01-24 10:48:52,0.0
-13800,-164,260,-219,90,-157,2024-01-24 10:48:52,0.0
-13716,-168,272,-184,97,-193,2024-01-24 10:48:52,0.0
-13732,-96,116,-152,66,-202,2024-01-24 10:48:52,0.0
-13664,-208,440,-105,132,-237,2024-01-24 10:48:52,0.0
-13844,-240,608,-83,439,-182,2024-01-24 10:48:52,
-13964,-148,324,-70,528,-197,2024-01-24 10:48:52,0.0
-14008,-124,112,-90,269,-209,2024-01-24 10:48:52,0.0
-14000,-88,80,-184,-188,-161,2024-01-24 10:48:52,0.0
-13944,-188,80,-206,-680,-162,2024-01-24 10:48:52,0.0
-13808,-72,232,-263,-993,-183,2024-01-24 10:48:52,0.0
-13648,-160,300,-158,-784,-238,2024-01-24 10:48:52,0.0
-13772,-120,340,-102,-451,-253,2024-01-24 10:48:52,0.0
-13732,-128,436,-106,-295,-214,2024-01-24 10:48:52,0.0
-13664,-60,760,-94,128,-269,2024-01-24 10:48:52,0.0
-13804,-44,824,-49,502,-290,2024-01-24 10:48:52,0.0
-13760,-72,672,-45,547,-240,2024-01-24 10:48:52,0.0
-13684,-32,220,-75,362,-212,2024-01-24 10:48:52,0.0
-13912,8,92,-216,-380,-212,2024-01-24 10:48:52,0.0
-14048,-48,140,-224,-594,-181,2024-01-24 10:48:52,0.0
-14104,-16,56,-231,-752,-157,2024-01-24 10:48:52,0.0
-14324,-88,-120,-83,-1636,-181,2024-01-24 10:48:52,0.0
-14288,-28,232,116,-2872,-224,2024-01-24 10:48:52,0.0
-14132,-268,392,315,-3767,-318,2024-01-24 10:48:52,0.0
-13756,-392,896,310,-3709,-371,2024-01-24 10:48:52,0.0
-13700,-236,916,279,-3365,-379,2024-01-24 10:48:52,0.0
-13644,-60,772,231,-3143,-390,2024-01-24 10:48:52,0.0
-13540,196,784,33,-2709,-416,2024-01-24 10:48:52,0.0
-13596,272,1072,-77,-1994,-339,2024-01-24 10:48:52,0.0
-13592,392,1104,-185,-1285,-166,2024-01-24 10:48:52,0.0
-13404,292,1440,-258,-269,5,2024-01-24 10:48:52,0.0
-13416,-56,1700,-398,298,134,2024-01-24 10:48:52,0.0
-13268,-216,1908,-459,887,150,2024-01-24 10:48:52,0.0
-13364,-324,1900,-504,1444,135,2024-01-24 10:48:52,0.0
-13604,-332,1668,-536,1667,161,2024-01-24 10:48:52,0.0
-13704,-568,1552,-520,1435,113,2024-01-24 10:48:52,0.0
-13760,-596,1524,-461,1033,38,2024-01-24 10:48:52,0.0
-13800,-484,1440,-408,782,-1,2024-01-24 10:48:52,0.0
-13980,-484,1624,-355,632,-65,2024-01-24 10:48:52,0.0
-14108,-408,1720,-252,511,-86,2024-01-24 10:48:52,0.0
-14132,-332,1648,-164,408,-75,2024-01-24 10:48:52,0.0
-14168,-416,1552,-86,225,-98,2024-01-24 10:48:52,0.0
-14168,-228,1472,-5,12,-120,2024-01-24 10:48:52,0.0
-14024,-364,1304,26,-195,-186,2024-01-24 10:48:52,0.0
-13968,-160,1516,35,-377,-271,2024-01-24 10:48:52,0.0
-13856,-120,1416,28,-359,-317,2024-01-24 10:48:52,0.0
-13720,-88,1300,-9,-282,-356,2024-01-24 10:48:52,0.0
-13688,52,1300,-91,-182,-412,2024-01-24 10:48:52,0.0
-13904,76,1240,-216,-94,-405,2024-01-24 10:48:52,0.0
-13844,96,1364,-349,35,-362,2024-01-24 10:48:52,0.0
-13816,24,1184,-452,93,-297,2024-01-24 10:48:52,0.0
-13824,72,1408,-572,197,-249,2024-01-24 10:48:52,0.0
-13728,8,1368,-585,241,-252,2024-01-24 10:48:52,0.0
-13584,-68,1332,-643,323,-232,2024-01-24 10:48:52,0.0
-13684,-84,1288,-670,433,-229,2024-01-24 10:48:52,0.0
-13864,-92,1380,-599,496,-236,2024-01-24 10:48:52,0.0
-13804,-220,1296,-550,490,-218,2024-01-24 10:48:52,0.0
-13872,-264,1328,-490,507,-167,2024-01-24 10:48:52,0.0
-13964,-164,1268,-498,509,-146,2024-01-24 10:48:53,0.0
-13912,-176,1220,-462,456,-180,2024-01-24 10:48:53,0.0
-13956,-72,1360,-423,399,-165,2024-01-24 10:48:53,0.0
-13936,-120,1536,-374,466,-169,2024-01-24 10:48:53,0.0
-13908,-172,1416,-346,459,-124,2024-01-24 10:48:53,0.0
-13760,-132,1292,-333,416,-162,2024-01-24 10:48:53,0.0
-13884,-168,1156,-354,319,-192,2024-01-24 10:48:53,0.0
-14028,-76,1368,-290,336,-179,2024-01-24 10:48:53,0.0
-13812,-212,1316,-273,363,-175,2024-01-24 10:48:53,0.0
-13876,-276,1268,-227,343,-179,2024-01-24 10:48:53,0.0
-13996,-188,1236,-187,386,-200,2024-01-24 10:48:53,0.0
-13888,-216,1128,-142,397,-162,2024-01-24 10:48:53,0.0
-13928,-380,1172,-53,377,-116,2024-01-24 10:48:53,0.0
-13896,-268,1244,-58,330,-73,2024-01-24 10:48:53,0.0
-13720,-260,1224,-12,333,-76,2024-01-24 10:48:53,0.0
-13800,-340,1172,-50,344,-75,2024-01-24 10:48:53,0.0
-13772,-104,1256,-57,392,-47,2024-01-24 10:48:53,0.0
-13832,-148,1260,-37,413,-94,2024-01-24 10:48:53,0.0
-13764,-128,1236,-86,444,-53,2024-01-24 10:48:53,0.0
-13760,-72,1332,-134,521,-84,2024-01-24 10:48:53,0.0
-13892,-80,1112,-154,663,-80,2024-01-24 10:48:53,0.0
-13932,-200,940,-146,753,-71,2024-01-24 10:48:53,0.0
-13844,-60,888,-159,742,-103,2024-01-24 10:48:53,0.0
-13880,-60,916,-167,677,-136,2024-01-24 10:48:53,0.0
-13800,-128,944,-192,606,-135,2024-01-24 10:48:53,0.0
-13868,-80,872,-196,576,-164,2024-01-24 10:48:53,0.0
-13808,-60,1188,-214,756,-186,2024-01-24 10:48:53,0.0
-13932,-72,856,-244,820,-212,2024-01-24 10:48:53,0.0
-14128,48,668,-300,690,-239,2024-01-24 10:48:53,0.0
-14020,112,572,-437,446,-222,2024-01-24 10:48:53,0.0
-13932,164,736,-474,409,-210,2024-01-24 10:48:53,0.0
-13796,60,892,-551,471,-198,2024-01-24 10:48:53,0.0
-13608,60,672,-537,548,-157,2024-01-24 10:48:53,0.0
-13600,-128,824,-536,605,-140,2024-01-24 10:48:53,0.0
-13672,-128,960,-529,674,-142,2024-01-24 10:48:53,0.0
-13676,-124,964,-477,780,-119,2024-01-24 10:48:53,0.0
-13724,-184,860,-448,870,-109,2024-01-24 10:48:53,0.0
-13868,-132,932,-418,940,-109,2024-01-24 10:48:53,0.0
-13828,-208,912,-396,983,-146,2024-01-24 10:48:53,0.0
-13792,-164,800,-367,1028,-117,2024-01-24 10:48:53,0.0
-13764,-120,868,-313,936,-128,2024-01-24 10:48:53,0.0
-13744,-128,712,-309,918,-105,2024-01-24 10:48:53,0.0
-13860,-64,780,-335,929,-108,2024-01-24 10:48:53,0.0
-13752,-96,588,-304,924,-144,2024-01-24 10:48:53,0.0
-13872,-144,648,-337,852,-152,2024-01-24 10:48:53,0.0
-13852,-164,592,-359,745,-171,2024-01-24 10:48:53,0.0
-13868,-48,660,-343,657,-158,2024-01-24 10:48:53,0.0
-13872,-72,660,-328,611,-214,2024-01-24 10:48:53,
-13764,-148,552,-325,606,-234,2024-01-24 10:48:53,0.0
-13712,-96,648,-335,617,-242,2024-01-24 10:48:53,0.0
-13724,-76,560,-323,652,-251,2024-01-24 10:48:53,0.0
-13768,-168,580,-270,653,-226,2024-01-24 10:48:53,0.0
-13812,-152,592,-222,649,-236,2024-01-24 10:48:53,0.0
-13764,-36,540,-211,664,-224,2024-01-24 10:48:53,0.0
-13800,-168,680,-176,684,-223,2024-01-24 10:48:53,0.0
-13796,-124,488,-137,692,-219,2024-01-24 10:48:53,0.0
-13924,-128,236,-132,670,-234,2024-01-24 10:48:53,0.0
-13876,-76,364,-208,581,-231,2024-01-24 10:48:53,0.0
-13776,-24,516,-273,519,-214,2024-01-24 10:48:54,0.0
-13744,-8,456,-301,519,-201,2024-01-24 10:48:54,0.0
-13800,-56,432,-304,562,-187,2024-01-24 10:48:54,0.0
-13780,-96,384,-335,575,-185,2024-01-24 10:48:54,0.0
-13744,-52,344,-313,521,-199,2024-01-24 10:48:54,0.0
-13884,-40,312,-331,445,-180,2024-01-24 10:48:54,0.0
-13880,-120,288,-330,388,-192,2024-01-24 10:48:54,0.0
-13856,-136,292,-332,377,-223,2024-01-24 10:48:54,0.0
-13868,-104,280,-280,369,-211,2024-01-24 10:48:54,0.0
-13856,-144,384,-227,337,-238,2024-01-24 10:48:54,0.0
-13956,-72,400,-223,271,-198,2024-01-24 10:48:54,0.0
-13848,-172,260,-167,235,-158,2024-01-24 10:48:54,0.0
-13844,-176,348,-125,221,-168,2024-01-24 10:48:54,0.0
-13884,-100,192,-119,168,-145,2024-01-24 10:48:54,0.0
-13816,-100,88,-97,141,-150,2024-01-24 10:48:54,0.0
-13804,-56,260,-88,135,-182,2024-01-24 10:48:54,0.0
-13704,-72,260,-111,147,-193,2024-01-24 10:48:54,0.0
-13824,-144,292,-108,184,-179,2024-01-24 10:48:54,0.0
-13760,-48,352,-171,165,-182,2024-01-24 10:48:54,0.0
-13812,-164,312,-138,132,-204,2024-01-24 10:48:54,0.0
-13784,-164,396,-141,147,-185,2024-01-24 10:48:54,0.0
-13728,-40,460,-147,200,-187,2024-01-24 10:48:54,0.0
-13852,-132,196,-146,190,-181,2024-01-24 10:48:54,0.0
-13816,-80,228,-152,195,-218,2024-01-24 10:48:54,0.0
-13856,-76,236,-156,219,-197,2024-01-24 10:48:54,0.0
-13808,-216,280,-119,148,-215,2024-01-24 10:48:54,0.0
-13884,-76,72,-111,174,-241,2024-01-24 10:48:54,0.0
-13788,-108,312,-105,146,-225,2024-01-24 10:48:54,0.0
-13724,-64,128,-84,120,-227,2024-01-24 10:48:54,0.0
-13692,-28,344,-96,134,-230,2024-01-24 10:48:54,0.0
-13776,-160,248,-89,170,-221,2024-01-24 10:48:54,0.0
-13844,44,408,-154,241,-213,2024-01-24 10:48:54,0.0
-13784,-96,128,-162,246,-231,2024-01-24 10:48:54,0.0
-13836,-84,192,-206,212,-188,2024-01-24 10:48:54,0.0
-13736,-136,160,-217,171,-208,2024-01-24 10:48:54,0.0
-13784,-92,196,-212,124,-209,2024-01-24 10:48:54,0.0
-13824,-88,280,-250,163,-169,2024-01-24 10:48:54,0.0
-13824,-44,336,-282,145,-179,2024-01-24 10:48:54,0.0
-13828,-160,284,-240,156,-193,2024-01-24 10:48:54,0.0
-13732,-28,216,-253,153,-164,2024-01-24 10:48:54,0.0
-13752,-132,344,-219,194,-164,2024-01-24 10:48:54,0.0
-13736,-144,284,-215,213,-202,2024-01-24 10:48:54,0.0
-13700,-136,336,-200,227,-233,2024-01-24 10:48:54,0.0
-13780,-80,280,-218,225,-238,2024-01-24 10:48:54,0.0
-13840,-216,228,-209,235,-214,2024-01-24 10:48:54,0.0
-13772,-176,400,-234,236,-235,2024-01-24 10:48:54,0.0
-13884,-196,336,-219,216,-221,2024-01-24 10:48:54,0.0
-13736,-84,352,-169,208,-212,2024-01-24 10:48:54,0.0
-13916,-192,364,-172,258,-203,2024-01-24 10:48:54,0.0
-13820,-92,456,-148,184,-160,2024-01-24 10:48:54,0.0
-13832,-128,288,-120,145,-180,2024-01-24 10:48:54,0.0
-13692,-148,444,-145,147,-187,2024-01-24 10:48:54,0.0
-13764,-204,400,-119,164,-203,2024-01-24 10:48:54,0.0
-13756,-124,252,-154,164,-176,2024-01-24 10:48:54,0.0
-13792,-132,204,-171,150,-185,2024-01-24 10:48:54,0.0
-13732,-16,100,-199,152,-158,2024-01-24 10:48:54,0.0
-13920,-172,248,-255,90,-179,2024-01-24 10:48:54,0.0
-13836,-176,308,-240,80,-177,2024-01-24 10:48:54,0.0
-13840,-92,368,-256,33,-158,2024-01-24 10:48:54,0.0
-13820,-88,436,-279,68,-166,2024-01-24 10:48:55,0.0
-13772,-28,292,-272,103,-178,2024-01-24 10:48:55,0.0
-13740,-68,372,-279,112,-209,2024-01-24 10:48:55,0.0
-13836,-72,296,-280,124,-236,2024-01-24 10:48:55,0.0
-13816,-128,472,-281,42,-228,2024-01-24 10:48:55,0.0
-13740,-108,420,-238,35,-234,2024-01-24 10:48:55,0.0
-13832,-152,220,-190,-21,-180,2024-01-24 10:48:55,0.0
-13732,-196,512,-185,-72,-165,2024-01-24 10:48:55,0.0
-13732,-92,476,-141,-33,-148,2024-01-24 10:48:55,0.0
-13772,-160,444,-124,11,-171,2024-01-24 10:48:55,0.0
-13756,-132,304,-139,82,-161,2024-01-24 10:48:55,0.0
-13812,-100,308,-115,113,-164,2024-01-24 10:48:55,0.0
-13788,-48,276,-152,116,-152,2024-01-24 10:48:55,0.0
-13888,-100,228,-225,166,-149,2024-01-24 10:48:55,0.0
-13760,-68,256,-277,109,-141,2024-01-24 10:48:55,0.0
-13812,-88,220,-347,94,-169,2024-01-24 10:48:55,0.0
-13844,-132,428,-382,76,-166,2024-01-24 10:48:55,0.0
-13720,-128,392,-399,133,-153,2024-01-24 10:48:55,0.0
-13928,-124,464,-391,158,-177,2024-01-24 10:48:55,0.0
-13740,-156,456,-400,169,-209,2024-01-24 10:48:55,0.0
-13904,-148,424,-394,188,-201,2024-01-24 10:48:55,0.0
-13820,-132,504,-364,181,-219,2024-01-24 10:48:55,0.0
-13876,-184,456,-355,156,-182,2024-01-24 10:48:55,0.0
-13760,-176,548,-297,145,-210,2024-01-24 10:48:55,0.0
-13792,-132,452,-298,186,-194,2024-01-24 10:48:55,0.0
-13660,-44,504,-258,182,-217,2024-01-24 10:48:55,0.0
-13740,-216,460,-216,155,-171,2024-01-24 10:48:55,0.0
-13712,-104,452,-195,151,-169,2024-01-24 10:48:55,0.0
-13780,-52,520,-184,173,-179,2024-01-24 10:48:55,0.0
-13812,-132,400,-106,218,-184,2024-01-24 10:48:55,0.0
-13856,-284,596,-92,212,-149,2024-01-24 10:48:55,
