acceleration_x,acceleration_y,acceleration_z,gyroscope_x,gyroscope_y,gyroscope_z,timestamp,label
-12856,-236,7336,-164,146,-143,2024-01-24 10:51:33,0.0
-12864,-208,7360,-150,159,-158,2024-01-24 10:51:33,0.0
-12964,-228,7392,-147,127,-188,2024-01-24 10:51:33,0.0
-12892,-264,7344,-162,165,-181,2024-01-24 10:51:33,0.0
-12908,-176,7404,-180,181,-158,2024-01-24 10:51:33,0.0
-12996,-200,7240,-164,202,-134,2024-01-24 10:51:34,0.0
-12916,-300,7404,-186,188,-124,2024-01-24 10:51:34,0.0
-12884,-164,7332,-186,179,-110,2024-01-24 10:51:34,0.0
-12828,-200,7372,-177,165,-166,2024-01-24 10:51:34,0.0
-12928,-172,7468,-177,182,-202,2024-01-24 10:51:34,0.0
-12824,-216,7368,-168,187,-219,2024-01-24 10:51:34,0.0
-12816,-208,7444,-167,152,-216,2024-01-24 10:51:34,0.0
-12860,-176,7392,-200,144,-211,2024-01-24 10:51:34,0.0
-12836,-136,7352,-197,154,-233,2024-01-24 10:51:34,0.0
-12920,-152,7368,-216,213,-188,2024-01-24 10:51:34,0.0
-12872,-272,7284,-204,177,-198,2024-01-24 10:51:34,0.0
-12852,-244,7340,-227,197,-205,2024-01-24 10:51:34,0.0
-13040,-348,7292,-185,157,-240,2024-01-24 10:51:34,0.0
-12936,-304,7280,-198,148,-208,2024-01-24 10:51:34,0.0
-12880,-308,7500,-227,128,-194,2024-01-24 10:51:34,0.0
-12912,-264,7424,-182,155,-193,2024-01-24 10:51:34,0.0
-12948,-232,7420,-207,159,-189,2024-01-24 10:51:34,0.0
-12844,-232,7488,-166,167,-177,2024-01-24 10:51:34,0.0
-12888,-168,7396,-204,168,-164,2024-01-24 10:51:34,0.0
-12936,-196,7424,-206,175,-166,2024-01-24 10:51:34,0.0
-12888,-208,7556,-193,180,-166,2024-01-24 10:51:34,0.0
-12900,-152,7372,-193,169,-184,2024-01-24 10:51:34,0.0
-12972,-232,7144,-183,60,-220,2024-01-24 10:51:34,0.0
-12876,-272,7388,-159,5,-175,2024-01-24 10:51:34,0.0
-12888,-228,7392,-187,2,-192,2024-01-24 10:51:34,0.0
-12756,-280,7284,-200,-26,-164,2024-01-24 10:51:34,0.0
-12900,-264,7372,-195,38,-152,2024-01-24 10:51:34,0.0
-12868,-292,7460,-137,121,-151,2024-01-24 10:51:34,0.0
-12848,-176,7488,-161,163,-172,2024-01-24 10:51:34,0.0
-12840,-292,7404,-141,186,-192,2024-01-24 10:51:34,0.0
-12868,-256,7328,-175,174,-197,2024-01-24 10:51:34,0.0
-12892,-332,7404,-171,169,-164,2024-01-24 10:51:34,0.0
-12940,-272,7376,-172,170,-189,2024-01-24 10:51:34,0.0
-12860,-236,7404,-191,160,-157,2024-01-24 10:51:34,0.0
-12808,-300,7380,-179,148,-165,2024-01-24 10:51:34,0.0
-12904,-188,7392,-174,198,-180,2024-01-24 10:51:34,0.0
-12912,-240,7424,-164,213,-185,2024-01-24 10:51:34,0.0
-12868,-228,7408,-164,231,-167,2024-01-24 10:51:34,0.0
-12812,-232,7440,-188,201,-168,2024-01-24 10:51:34,0.0
-12844,-304,7448,-138,181,-169,2024-01-24 10:51:34,0.0
-12876,-236,7372,-149,201,-152,2024-01-24 10:51:34,0.0
-12864,-260,7492,-187,220,-169,2024-01-24 10:51:34,0.0
-12908,-320,7480,-192,172,-191,2024-01-24 10:51:34,0.0
-12952,-208,7340,-190,140,-153,2024-01-24 10:51:34,0.0
-12884,-196,7672,-191,188,-180,2024-01-24 10:51:34,0.0
-12860,-184,7532,-174,214,-183,2024-01-24 10:51:34,0.0
-12884,-172,7464,-198,191,-157,2024-01-24 10:51:34,0.0
-12912,-272,7352,-190,210,-152,2024-01-24 10:51:34,0.0
-12920,-276,7376,-171,157,-160,2024-01-24 10:51:34,0.0
-12944,-208,7408,-202,178,-153,2024-01-24 10:51:34,0.0
-12896,-172,7464,-165,223,-189,2024-01-24 10:51:34,0.0
-12888,-244,7304,-153,215,-166,2024-01-24 10:51:34,0.0
-12776,-252,7268,-165,226,-184,2024-01-24 10:51:34,0.0
-12944,-284,7380,-185,206,-176,2024-01-24 10:51:34,0.0
-12876,-172,7324,-185,235,-162,2024-01-24 10:51:34,0.0
-12860,-228,7428,-187,217,-180,2024-01-24 10:51:34,0.0
-12956,-240,7388,-187,236,-206,2024-01-24 10:51:34,0.0
-12848,-200,7452,-172,175,-163,2024-01-24 10:51:34,0.0
-12888,-176,7276,-180,191,-190,2024-01-24 10:51:34,0.0
-12932,-236,7436,-192,226,-177,2024-01-24 10:51:34,0.0
-12756,-144,7532,-212,254,-162,2024-01-24 10:51:35,0.0
-12928,-200,7372,-199,224,-194,2024-01-24 10:51:35,0.0
-12924,-204,7432,-194,203,-184,2024-01-24 10:51:35,0.0
-12872,-236,7468,-205,195,-180,2024-01-24 10:51:35,0.0
-12872,-240,7504,-189,186,-170,2024-01-24 10:51:35,0.0
-12888,-204,7520,-188,234,-154,2024-01-24 10:51:35,0.0
-12868,-200,7580,-193,278,-180,2024-01-24 10:51:35,0.0
-12932,-256,7340,-210,267,-178,2024-01-24 10:51:35,0.0
-12956,-168,7588,-172,269,-146,2024-01-24 10:51:35,0.0
-12932,-216,7368,-159,269,-182,2024-01-24 10:51:35,0.0
-12884,-192,7360,-161,292,-139,2024-01-24 10:51:35,0.0
-13188,-212,7548,-74,352,-45,2024-01-24 10:51:35,0.0
-13308,-32,7452,-7,503,137,2024-01-24 10:51:35,0.0
-13192,-100,7316,-84,393,191,2024-01-24 10:51:35,0.0
-13300,-312,7596,27,488,285,2024-01-24 10:51:35,0.0
-13008,-132,7456,92,509,482,2024-01-24 10:51:35,0.0
-12364,-176,7136,-2,437,358,2024-01-24 10:51:35,0.0
-12752,-84,7352,16,580,329,2024-01-24 10:51:35,0.0
-13392,-76,7776,154,813,469,2024-01-24 10:51:35,0.0
-13468,8,7740,296,1164,702,2024-01-24 10:51:35,0.0
-13064,-124,7592,277,1183,760,2024-01-24 10:51:35,0.0
-12696,-196,7348,220,1252,664,2024-01-24 10:51:35,0.0
-12496,-64,7236,99,1374,502,2024-01-24 10:51:35,0.0
-12448,-96,7268,92,1448,343,2024-01-24 10:51:35,0.0
-12652,-84,7228,79,1531,136,2024-01-24 10:51:35,0.0
-12784,-124,7204,187,1645,37,2024-01-24 10:51:35,0.0
-12872,136,7196,209,1880,1,2024-01-24 10:51:35,0.0
-12680,-80,7176,233,2153,-188,2024-01-24 10:51:35,0.0
-12324,-176,6688,111,2332,-580,2024-01-24 10:51:35,0.0
-12564,-132,6640,-13,2749,-922,2024-01-24 10:51:35,0.0
-12632,-316,6436,-57,3451,-1069,2024-01-24 10:51:35,0.0
-13140,-404,6772,-38,4091,-1203,2024-01-24 10:51:35,0.0
-13208,8,6944,176,4116,-1056,2024-01-24 10:51:35,0.0
-13352,280,6844,549,3788,-753,2024-01-24 10:51:35,0.0
-13284,236,6704,759,3673,-593,2024-01-24 10:51:35,
-12904,288,6332,733,3792,-523,2024-01-24 10:51:35,0.0
-12912,324,6164,510,3657,-605,2024-01-24 10:51:35,0.0
-12948,348,6208,394,3665,-593,2024-01-24 10:51:35,0.0
-12948,436,6324,170,3634,-683,2024-01-24 10:51:35,0.0
-13024,272,6316,42,3582,-584,2024-01-24 10:51:35,0.0
-13032,-188,5676,-108,3618,-449,2024-01-24 10:51:35,0.0
-13064,-788,5688,-189,3854,-442,2024-01-24 10:51:35,0.0
-13804,-288,5548,-256,4119,-223,2024-01-24 10:51:35,0.0
-13716,-272,5096,-201,4293,129,2024-01-24 10:51:35,0.0
-13620,-364,4588,-208,4454,306,2024-01-24 10:51:35,0.0
-13540,-288,4564,-155,4441,385,2024-01-24 10:51:35,0.0
-13448,-180,4612,-91,4444,414,2024-01-24 10:51:35,0.0
-13604,264,4528,-154,4752,597,2024-01-24 10:51:35,0.0
-13776,400,4216,-180,5605,575,2024-01-24 10:51:35,0.0
-14076,-56,4688,-188,6413,293,2024-01-24 10:51:35,0.0
-14280,-992,5612,192,6144,-449,2024-01-24 10:51:35,0.0
-14828,-1248,5676,670,4936,-1130,2024-01-24 10:51:35,0.0
-13944,-1148,4752,569,4004,-1640,2024-01-24 10:51:35,0.0
-13448,-1160,3080,-92,4423,-2695,2024-01-24 10:51:35,0.0
-13004,-1180,3100,-660,6058,-3598,2024-01-24 10:51:35,0.0
-16008,304,2804,-1092,7305,-3370,2024-01-24 10:51:35,0.0
-18136,1744,3640,-1457,7580,-2144,2024-01-24 10:51:35,0.0
-16740,940,3748,-1216,6498,-1263,2024-01-24 10:51:35,0.0
-16692,1572,2868,-1458,5273,-812,2024-01-24 10:51:35,0.0
-16544,900,3472,-1070,5556,-902,2024-01-24 10:51:35,0.0
-16688,-84,3180,-336,4481,-285,2024-01-24 10:51:36,0.0
-16200,492,2196,2,4235,-152,2024-01-24 10:51:36,0.0
-16356,-216,1668,-1,4500,-242,2024-01-24 10:51:36,0.0
-16564,-564,1512,-157,4319,5,2024-01-24 10:51:36,0.0
-15720,-872,1696,-113,4693,-167,2024-01-24 10:51:36,0.0
-16356,-820,928,259,5107,-43,2024-01-24 10:51:36,0.0
-16376,-676,768,652,5105,99,2024-01-24 10:51:36,0.0
-15760,-668,296,867,5090,179,2024-01-24 10:51:36,0.0
-15248,-696,92,877,5425,195,2024-01-24 10:51:36,0.0
-15492,-200,-484,854,5827,217,2024-01-24 10:51:36,0.0
-15280,-68,-932,670,6144,183,2024-01-24 10:51:36,0.0
-15080,184,-1392,492,6176,161,2024-01-24 10:51:36,0.0
-14780,-92,-1428,328,5840,186,2024-01-24 10:51:36,0.0
-14732,-556,-1264,188,5252,324,2024-01-24 10:51:36,0.0
-14180,-736,-1200,106,4742,444,2024-01-24 10:51:36,0.0
-14160,-704,-1368,229,4492,499,2024-01-24 10:51:36,0.0
-13836,-752,-1688,260,4169,433,2024-01-24 10:51:36,0.0
-13532,-728,-1544,183,3627,281,2024-01-24 10:51:36,0.0
-13560,-680,-1400,135,2838,-32,2024-01-24 10:51:36,0.0
-13236,-528,-1780,-13,2138,-165,2024-01-24 10:51:36,0.0
-13804,-256,-1816,-253,1574,-85,2024-01-24 10:51:36,0.0
-13620,-304,-1680,-525,569,-114,2024-01-24 10:51:36,0.0
-13288,-420,-1820,-715,-199,-254,2024-01-24 10:51:36,0.0
-13528,-60,-1684,-848,-925,-216,2024-01-24 10:51:36,0.0
-13444,-172,-1432,-927,-1495,-166,2024-01-24 10:51:36,0.0
-13240,-280,-1328,-1062,-2158,-148,2024-01-24 10:51:36,0.0
-12884,-412,-1240,-1205,-2639,-209,2024-01-24 10:51:36,0.0
-12968,-456,-900,-1343,-2747,-219,2024-01-24 10:51:36,0.0
-13028,-236,-676,-1311,-2665,-208,2024-01-24 10:51:36,0.0
-12804,-332,-400,-1272,-2481,-164,2024-01-24 10:51:36,0.0
-12956,-132,-704,-1190,-2444,-129,2024-01-24 10:51:36,0.0
-12804,-136,-608,-1189,-2403,-165,2024-01-24 10:51:36,0.0
-12688,-276,-228,-903,-2561,-218,2024-01-24 10:51:36,0.0
-12780,-460,-168,-751,-2494,-311,2024-01-24 10:51:36,0.0
-12952,-692,-168,-624,-2242,-360,2024-01-24 10:51:36,0.0
-13384,-716,-460,-606,-1997,-313,2024-01-24 10:51:36,0.0
-13424,-328,-1464,-733,-1281,-396,2024-01-24 10:51:36,0.0
-13496,144,-1588,-1094,-111,-281,2024-01-24 10:51:36,0.0
-13068,-272,-172,-806,-1173,-207,2024-01-24 10:51:36,0.0
-12940,-204,148,-672,-2084,-350,2024-01-24 10:51:36,0.0
-13020,-152,176,-619,-2287,-304,2024-01-24 10:51:36,0.0
-12464,-256,-188,-561,-2388,-454,2024-01-24 10:51:36,0.0
-12572,-4,-212,-623,-2247,-554,2024-01-24 10:51:36,0.0
-12676,192,-8,-773,-2149,-514,2024-01-24 10:51:36,0.0
-12984,176,120,-1100,-2114,-307,2024-01-24 10:51:36,0.0
-13044,8,508,-1175,-2406,-51,2024-01-24 10:51:36,0.0
-12556,-396,680,-1117,-2785,90,2024-01-24 10:51:36,0.0
-12200,-432,1036,-1081,-3165,49,2024-01-24 10:51:36,0.0
-12124,-400,1140,-1030,-3432,14,2024-01-24 10:51:36,0.0
-12024,-232,928,-1099,-3218,98,2024-01-24 10:51:36,0.0
-11924,-332,964,-1066,-2955,100,2024-01-24 10:51:36,0.0
-11936,-444,1112,-1039,-2707,60,2024-01-24 10:51:36,0.0
-11820,-420,1144,-951,-2599,-132,2024-01-24 10:51:36,0.0
-12520,-504,1408,-768,-2211,-300,2024-01-24 10:51:36,0.0
-12592,-212,1408,-548,-2097,-434,2024-01-24 10:51:36,0.0
-13004,-444,1784,-376,-2516,-525,2024-01-24 10:51:36,0.0
-13336,-328,1636,-278,-2432,-527,2024-01-24 10:51:36,0.0
-13616,-328,1428,-286,-2146,-345,2024-01-24 10:51:36,0.0
-13712,-472,1400,-273,-2080,-124,2024-01-24 10:51:36,0.0
-13780,-596,1264,-210,-2322,-88,2024-01-24 10:51:36,0.0
-13760,-692,1252,-147,-2480,-67,2024-01-24 10:51:37,0.0
-13432,-680,1436,-115,-2362,-47,2024-01-24 10:51:37,0.0
-13356,-416,1596,-71,-1986,-137,2024-01-24 10:51:37,0.0
-13392,-288,1424,-5,-1669,-139,2024-01-24 10:51:37,0.0
-13400,-124,1144,-80,-1429,-49,2024-01-24 10:51:37,0.0
-13408,24,1196,-124,-1394,53,2024-01-24 10:51:37,0.0
-13004,68,1472,-75,-1187,71,2024-01-24 10:51:37,0.0
-12784,-64,1884,-6,-689,98,2024-01-24 10:51:37,0.0
-12908,-200,1568,-25,-236,61,2024-01-24 10:51:37,0.0
-13172,-300,1444,-49,247,156,2024-01-24 10:51:37,0.0
-12812,-440,1416,36,499,79,2024-01-24 10:51:37,0.0
-12940,-352,1464,77,781,101,2024-01-24 10:51:37,0.0
-13368,-108,1512,172,776,126,2024-01-24 10:51:37,0.0
-13328,-212,1424,111,604,91,2024-01-24 10:51:37,0.0
-13696,-144,1288,37,378,13,2024-01-24 10:51:37,
-14048,32,1476,18,-233,19,2024-01-24 10:51:37,0.0
-13728,-76,1280,-156,-375,-63,2024-01-24 10:51:37,0.0
-13392,44,1676,-181,-92,-39,2024-01-24 10:51:37,0.0
-13272,44,1952,-106,75,-86,2024-01-24 10:51:37,0.0
-13624,-96,1876,-70,294,-170,2024-01-24 10:51:37,0.0
-13604,-220,2008,-17,506,-121,2024-01-24 10:51:37,0.0
-13392,-336,1812,94,615,-170,2024-01-24 10:51:37,0.0
-13216,-712,1816,189,888,-254,2024-01-24 10:51:37,0.0
-13788,-492,1740,266,842,-267,2024-01-24 10:51:37,0.0
-13844,-412,1468,263,635,-159,2024-01-24 10:51:37,0.0
-13976,-216,2000,332,392,-107,2024-01-24 10:51:37,0.0
-13768,-236,2008,362,301,-61,2024-01-24 10:51:37,0.0
-13760,-260,1844,380,445,-55,2024-01-24 10:51:37,0.0
-13856,-140,1800,397,499,-106,2024-01-24 10:51:37,0.0
-13944,-168,1864,391,228,-146,2024-01-24 10:51:37,0.0
-13780,-240,1696,339,17,-186,2024-01-24 10:51:37,0.0
-13912,-308,1756,324,-290,-234,2024-01-24 10:51:37,0.0
-14116,-248,1600,242,-589,-260,2024-01-24 10:51:37,0.0
-13952,-136,1772,205,-826,-151,2024-01-24 10:51:37,0.0
-13620,-192,1564,168,-832,-140,2024-01-24 10:51:37,0.0
-13720,-132,1776,87,-471,-91,2024-01-24 10:51:37,0.0
-14020,-300,1868,37,-257,-142,2024-01-24 10:51:37,0.0
-14228,-100,1852,12,-356,-157,2024-01-24 10:51:37,0.0
-14264,-64,1860,22,-614,-156,2024-01-24 10:51:37,0.0
-14096,-136,2072,76,-872,-181,2024-01-24 10:51:37,0.0
-13940,-228,2256,78,-1018,-250,2024-01-24 10:51:37,0.0
-13840,-228,2352,32,-1139,-299,2024-01-24 10:51:37,0.0
-13764,-148,2504,48,-1185,-316,2024-01-24 10:51:37,0.0
-13560,-260,2400,-78,-985,-259,2024-01-24 10:51:37,0.0
-13500,-84,2388,-96,-703,-260,2024-01-24 10:51:37,0.0
-13552,-48,2632,-77,-380,-246,2024-01-24 10:51:37,0.0
-13760,148,2668,-61,-139,-216,2024-01-24 10:51:37,0.0
-13920,-52,2752,-17,-133,-226,2024-01-24 10:51:37,0.0
-13712,-68,2536,-67,-102,-223,2024-01-24 10:51:37,0.0
-13652,-160,2652,-58,132,-253,2024-01-24 10:51:37,0.0
-13644,-192,2920,-14,378,-238,2024-01-24 10:51:37,0.0
-13760,-236,2796,15,497,-196,2024-01-24 10:51:37,0.0
-13808,-164,2764,0,519,-187,2024-01-24 10:51:37,0.0
-13788,-104,2644,-50,548,-179,2024-01-24 10:51:37,0.0
-13636,-148,2516,-23,629,-163,2024-01-24 10:51:37,0.0
-13820,-40,2792,-120,688,-176,2024-01-24 10:51:37,0.0
-13988,-120,2700,-150,641,-179,2024-01-24 10:51:37,0.0
-14136,-132,2832,-182,499,-171,2024-01-24 10:51:37,0.0
-13820,-200,2504,-201,359,-149,2024-01-24 10:51:37,0.0
-13704,-184,2432,-192,322,-141,2024-01-24 10:51:38,0.0
-13716,-260,2560,-154,432,-162,2024-01-24 10:51:38,0.0
-13928,-168,2440,-184,503,-149,2024-01-24 10:51:38,0.0
-13872,-144,2408,-217,417,-193,2024-01-24 10:51:38,0.0
-13908,-300,2516,-214,310,-171,2024-01-24 10:51:38,0.0
-13844,-156,2552,-146,296,-174,2024-01-24 10:51:38,0.0
-13884,-156,2416,-141,291,-190,2024-01-24 10:51:38,0.0
-13844,-208,2736,-99,278,-150,2024-01-24 10:51:38,0.0
-13796,-240,2492,-78,279,-169,2024-01-24 10:51:38,0.0
-13680,-156,2660,-25,304,-185,2024-01-24 10:51:38,0.0
-13800,-148,2592,-44,318,-171,2024-01-24 10:51:38,0.0
-13864,-256,2552,4,336,-184,2024-01-24 10:51:38,0.0
-13732,-252,2568,26,316,-182,2024-01-24 10:51:38,0.0
-13784,-244,2616,-16,353,-206,2024-01-24 10:51:38,0.0
-13692,-64,2464,-26,448,-203,2024-01-24 10:51:38,0.0
-13824,0,2364,-58,481,-140,2024-01-24 10:51:38,0.0
-13852,8,2592,-68,424,-158,2024-01-24 10:51:38,0.0
-13980,-16,2624,-117,370,-190,2024-01-24 10:51:38,0.0
-13820,-156,2576,-108,400,-185,2024-01-24 10:51:38,0.0
-13732,-72,2580,-118,396,-196,2024-01-24 10:51:38,0.0
-13736,-228,2664,-102,461,-198,2024-01-24 10:51:38,0.0
-13924,-120,2616,-81,449,-178,2024-01-24 10:51:38,0.0
-13772,-188,2680,-48,422,-173,2024-01-24 10:51:38,0.0
-13856,12,2496,-36,436,-179,2024-01-24 10:51:38,0.0
-13744,-124,2508,-42,461,-194,2024-01-24 10:51:38,0.0
-13784,-52,2564,-37,556,-162,2024-01-24 10:51:38,0.0
-13936,-56,2536,-89,570,-158,2024-01-24 10:51:38,0.0
-13904,-144,2452,-132,500,-162,2024-01-24 10:51:38,0.0
-13768,-148,2448,-93,461,-170,2024-01-24 10:51:38,0.0
-13760,-144,2356,-125,476,-167,2024-01-24 10:51:38,0.0
-13764,-84,2376,-127,540,-142,2024-01-24 10:51:38,0.0
-13816,-124,2484,-146,540,-160,2024-01-24 10:51:38,0.0
-13788,-84,2424,-124,549,-170,2024-01-24 10:51:38,0.0
-13876,-256,2344,-110,600,-162,2024-01-24 10:51:38,0.0
-13848,-192,2276,-100,504,-196,2024-01-24 10:51:38,0.0
-13796,0,2272,-138,451,-202,2024-01-24 10:51:38,0.0
-13844,-140,2412,-112,417,-190,2024-01-24 10:51:38,0.0
-13820,-56,2432,-137,455,-179,2024-01-24 10:51:38,0.0
-13896,-100,2408,-129,432,-191,2024-01-24 10:51:38,0.0
-13888,-84,2312,-126,438,-187,2024-01-24 10:51:38,0.0
-13820,-124,2340,-157,423,-214,2024-01-24 10:51:38,0.0
-13892,-140,2372,-130,387,-218,2024-01-24 10:51:38,0.0
-13896,-48,2392,-144,309,-236,2024-01-24 10:51:38,0.0
-13940,-84,2364,-157,238,-220,2024-01-24 10:51:38,0.0
-13904,-140,2268,-107,219,-187,2024-01-24 10:51:38,0.0
-13788,-252,2364,-68,230,-195,2024-01-24 10:51:38,0.0
-13784,-172,2300,-26,267,-170,2024-01-24 10:51:38,0.0
-13844,-184,2304,-29,255,-182,2024-01-24 10:51:38,0.0
-14004,-196,2308,0,217,-192,2024-01-24 10:51:38,0.0
-13988,-148,2332,-15,168,-186,2024-01-24 10:51:38,0.0
-13824,-140,2272,-16,158,-185,2024-01-24 10:51:38,0.0
-13852,-140,2192,-10,168,-170,2024-01-24 10:51:38,0.0
-13712,-92,2216,-28,159,-168,2024-01-24 10:51:38,0.0
-13780,-136,2328,-26,258,-196,2024-01-24 10:51:38,0.0
-13820,-212,2320,-56,338,-193,2024-01-24 10:51:38,0.0
-13892,-216,2192,-47,366,-220,2024-01-24 10:51:38,
-13716,-216,2204,-38,421,-187,2024-01-24 10:51:38,0.0
-13712,-224,2312,26,434,-174,2024-01-24 10:51:38,0.0
-13820,-216,2180,31,479,-182,2024-01-24 10:51:38,0.0
-13900,-200,2236,52,487,-192,2024-01-24 10:51:38,0.0
-13888,-380,2064,50,488,-183,2024-01-24 10:51:39,0.0
-13820,-256,2116,71,508,-212,2024-01-24 10:51:39,0.0
-13924,-284,2228,101,385,-209,2024-01-24 10:51:39,0.0
-13820,-260,2280,117,336,-207,2024-01-24 10:51:39,0.0
-13848,-136,2352,136,318,-224,2024-01-24 10:51:39,0.0
-13852,-192,2128,129,386,-219,2024-01-24 10:51:39,0.0
-13864,-272,2112,154,401,-238,2024-01-24 10:51:39,0.0
-13872,-180,2168,151,397,-253,2024-01-24 10:51:39,0.0
-13808,-156,2116,187,374,-222,2024-01-24 10:51:39,0.0
-13860,-160,2088,155,411,-237,2024-01-24 10:51:39,0.0
-13836,-84,2088,101,457,-217,2024-01-24 10:51:39,0.0
-13896,-256,2132,88,476,-204,2024-01-24 10:51:39,0.0
-13880,-220,1976,83,548,-213,2024-01-24 10:51:39,0.0
-13860,-268,2000,76,533,-226,2024-01-24 10:51:39,0.0
-13868,-152,2004,74,488,-235,2024-01-24 10:51:39,0.0
-13876,-172,2056,71,511,-201,2024-01-24 10:51:39,0.0
-13852,-252,2016,78,533,-217,2024-01-24 10:51:39,0.0
-13848,-184,1992,90,564,-233,2024-01-24 10:51:39,0.0
-13840,-172,1952,84,545,-242,2024-01-24 10:51:39,0.0
-13900,-84,2020,109,567,-218,2024-01-24 10:51:39,0.0
-13892,-152,2056,152,583,-212,2024-01-24 10:51:39,0.0
-13880,-196,1948,91,622,-232,2024-01-24 10:51:39,0.0
-14004,-132,1976,75,591,-221,2024-01-24 10:51:39,0.0
-13904,-128,1920,119,540,-265,2024-01-24 10:51:39,0.0
-13912,-64,1984,94,470,-218,2024-01-24 10:51:39,0.0
-13916,-92,2040,107,559,-220,2024-01-24 10:51:39,0.0
-13924,-144,1932,64,595,-215,2024-01-24 10:51:39,0.0
-13856,-172,1828,55,558,-212,2024-01-24 10:51:39,0.0
-13708,-264,1836,55,532,-261,2024-01-24 10:51:39,0.0
-13872,-156,1752,7,425,-229,2024-01-24 10:51:39,0.0
-13844,-124,1884,13,371,-193,2024-01-24 10:51:39,0.0
-13792,-168,1864,29,426,-214,2024-01-24 10:51:39,0.0
-13784,-224,1724,-2,479,-198,2024-01-24 10:51:39,0.0
-13700,-136,1672,-12,456,-194,2024-01-24 10:51:39,0.0
-13808,-228,1820,-16,474,-236,2024-01-24 10:51:39,0.0
-13800,-64,1892,11,535,-200,2024-01-24 10:51:39,0.0
-13840,-128,1608,28,581,-195,2024-01-24 10:51:39,0.0
-13840,-236,1504,3,660,-226,2024-01-24 10:51:39,0.0
-13748,-132,1548,-21,649,-191,2024-01-24 10:51:39,0.0
-13784,-176,1748,-12,698,-185,2024-01-24 10:51:39,0.0
-13812,-208,1716,13,707,-214,2024-01-24 10:51:39,0.0
-13820,-172,1656,13,744,-202,2024-01-24 10:51:39,0.0
-13880,-304,1664,-3,685,-220,2024-01-24 10:51:39,0.0
-14044,-248,1576,4,650,-230,2024-01-24 10:51:39,0.0
-13920,-224,1564,-60,623,-225,2024-01-24 10:51:39,0.0
-13832,-120,1684,-58,659,-212,2024-01-24 10:51:39,0.0
-13880,-180,1768,-116,660,-207,2024-01-24 10:51:39,0.0
-14008,-248,1568,-108,678,-211,2024-01-24 10:51:39,0.0
-13948,-196,1416,-90,555,-225,2024-01-24 10:51:39,0.0
-14076,-200,1556,-74,340,-231,2024-01-24 10:51:39,0.0
-13992,-232,1556,-78,116,-186,2024-01-24 10:51:39,0.0
-13980,-308,1656,-64,72,-193,2024-01-24 10:51:39,0.0
-13904,-384,1648,-22,65,-194,2024-01-24 10:51:39,0.0
-13880,-240,1632,9,-6,-197,2024-01-24 10:51:39,0.0
-13672,-292,1608,1,-34,-205,2024-01-24 10:51:39,0.0
-13684,-228,1680,54,56,-180,2024-01-24 10:51:39,0.0
-13772,-248,1632,55,91,-241,2024-01-24 10:51:39,0.0
-13780,-228,1684,63,144,-218,2024-01-24 10:51:39,0.0
-13952,-328,1612,64,154,-185,2024-01-24 10:51:40,0.0
-13804,-248,1760,39,146,-227,2024-01-24 10:51:40,0.0
-13876,-352,1640,66,132,-262,2024-01-24 10:51:40,0.0
-13652,-320,1544,53,176,-247,2024-01-24 10:51:40,0.0
-13760,-340,1780,56,292,-225,2024-01-24 10:51:40,0.0
-13712,-252,1452,38,340,-221,2024-01-24 10:51:40,0.0
-13848,-216,1600,17,399,-241,2024-01-24 10:51:40,0.0
-13872,-212,1488,6,303,-223,2024-01-24 10:51:40,0.0
-13960,-160,1520,24,231,-256,2024-01-24 10:51:40,0.0
-13912,-184,1648,27,151,-235,2024-01-24 10:51:40,0.0
-13876,-308,1508,0,121,-240,2024-01-24 10:51:40,0.0
-13876,-268,1540,21,50,-282,2024-01-24 10:51:40,0.0
-13920,-340,1584,43,12,-255,2024-01-24 10:51:40,0.0
-13812,-296,1632,29,46,-257,2024-01-24 10:51:40,0.0
-13788,-324,1596,70,102,-259,2024-01-24 10:51:40,0.0
-13860,-220,1640,107,173,-272,2024-01-24 10:51:40,0.0
-13896,-384,1584,67,183,-257,2024-01-24 10:51:40,0.0
-13940,-220,1516,80,166,-276,2024-01-24 10:51:40,0.0
-13816,-312,1580,52,140,-261,2024-01-24 10:51:40,0.0
-13888,-352,1652,54,129,-234,2024-01-24 10:51:40,0.0
-13900,-376,1600,66,35,-219,2024-01-24 10:51:40,0.0
-14008,-376,1408,72,-30,-203,2024-01-24 10:51:40,0.0
-13896,-336,1332,97,-84,-273,2024-01-24 10:51:40,0.0
-13860,-468,1600,158,-102,-310,2024-01-24 10:51:40,0.0
-13812,-528,1628,240,-94,-334,2024-01-24 10:51:40,0.0
-13872,-448,1800,253,-17,-324,2024-01-24 10:51:40,0.0
-13836,-452,1712,253,113,-325,2024-01-24 10:51:40,0.0
-13808,-588,1596,255,215,-322,2024-01-24 10:51:40,0.0
-13848,-532,1748,251,264,-298,2024-01-24 10:51:40,0.0
-13856,-512,1676,301,292,-235,2024-01-24 10:51:40,0.0
-13856,-504,1736,326,242,-189,2024-01-24 10:51:40,0.0
-13876,-424,1748,322,155,-184,2024-01-24 10:51:40,0.0
-13852,-372,1596,363,106,-196,2024-01-24 10:51:40,0.0
-13900,-336,1520,326,162,-196,2024-01-24 10:51:40,0.0
-13880,-296,1444,299,241,-154,2024-01-24 10:51:40,0.0
-13868,-360,1648,266,302,-103,2024-01-24 10:51:40,0.0
-13804,-248,1756,235,362,-83,2024-01-24 10:51:40,0.0
-13776,-208,1760,159,435,-56,2024-01-24 10:51:40,
