acceleration_x,acceleration_y,acceleration_z,gyroscope_x,gyroscope_y,gyroscope_z,timestamp,label
-13596,-412,-644,-1251,-248,-90,2024-01-24 10:35:57,0.0
-13672,-204,-480,-1169,-103,-21,2024-01-24 10:35:57,0.0
-13648,-108,-416,-1066,-31,-22,2024-01-24 10:35:57,0.0
-13600,-208,-636,-951,52,-112,2024-01-24 10:35:57,0.0
-13656,-308,-496,-843,18,-214,2024-01-24 10:35:57,0.0
-13664,-268,-432,-711,20,-303,2024-01-24 10:35:57,0.0
-13728,-268,-584,-670,11,-340,2024-01-24 10:35:57,0.0
-13764,-60,-760,-673,-71,-317,2024-01-24 10:35:57,0.0
-13824,-64,-648,-742,-271,-263,2024-01-24 10:35:57,0.0
-13732,-36,-644,-770,-416,-216,2024-01-24 10:35:57,0.0
-13724,-92,-440,-813,-315,-193,2024-01-24 10:35:57,0.0
-13608,-28,-416,-826,-158,-168,2024-01-24 10:35:57,0.0
-13712,-108,-580,-794,-25,-213,2024-01-24 10:35:57,0.0
-13904,-64,-492,-805,19,-249,2024-01-24 10:35:57,0.0
-13852,-240,-264,-780,-153,-283,2024-01-24 10:35:57,0.0
-13916,-320,-256,-722,-331,-313,2024-01-24 10:35:57,0.0
-13888,-308,-184,-659,-479,-354,2024-01-24 10:35:57,0.0
-13728,-300,-64,-530,-440,-313,2024-01-24 10:35:58,0.0
-13772,-348,-320,-464,-386,-313,2024-01-24 10:35:58,0.0
-13676,-304,-296,-379,-290,-326,2024-01-24 10:35:58,0.0
-13700,-272,-76,-302,-276,-325,2024-01-24 10:35:58,0.0
-13808,-204,-236,-211,-275,-306,2024-01-24 10:35:58,0.0
-14032,-368,-180,-101,-286,-295,2024-01-24 10:35:58,0.0
-13744,-356,-320,-25,-293,-301,2024-01-24 10:35:58,0.0
-13744,-332,-264,32,-326,-321,2024-01-24 10:35:58,0.0
-13664,-360,-228,79,-320,-352,2024-01-24 10:35:58,0.0
-13756,-348,-248,124,-237,-370,2024-01-24 10:35:58,0.0
-13764,-284,-228,173,-232,-369,2024-01-24 10:35:58,0.0
-13688,-412,8,185,-263,-350,2024-01-24 10:35:58,0.0
-13720,-352,-16,197,-215,-325,2024-01-24 10:35:58,0.0
-13760,-468,-76,202,-181,-334,2024-01-24 10:35:58,0.0
-13620,-312,-104,252,-133,-333,2024-01-24 10:35:58,0.0
-13492,-468,40,297,-56,-348,2024-01-24 10:35:58,0.0
-13652,-524,116,344,-47,-403,2024-01-24 10:35:58,0.0
-13620,-544,-92,336,13,-383,2024-01-24 10:35:58,0.0
-13656,-464,132,343,-16,-356,2024-01-24 10:35:58,0.0
-13672,-328,36,366,-8,-355,2024-01-24 10:35:58,0.0
-13628,-480,160,385,42,-345,2024-01-24 10:35:58,0.0
-13560,-384,-72,350,55,-329,2024-01-24 10:35:58,0.0
-13608,-400,-88,368,153,-274,2024-01-24 10:35:58,0.0
-13508,-392,-28,326,293,-202,2024-01-24 10:35:58,0.0
-13772,-348,136,357,323,-190,2024-01-24 10:35:58,0.0
-13840,-444,-56,324,347,-177,2024-01-24 10:35:58,0.0
-13784,-352,-60,343,316,-130,2024-01-24 10:35:58,0.0
-13852,-444,-164,330,339,-134,2024-01-24 10:35:58,0.0
-13916,-408,-196,353,344,-137,2024-01-24 10:35:58,0.0
-13768,-500,-204,369,319,-150,2024-01-24 10:35:58,0.0
-13764,-504,-84,381,346,-138,2024-01-24 10:35:58,0.0
-13884,-440,-72,397,274,-150,2024-01-24 10:35:58,0.0
-13884,-428,-88,397,109,-178,2024-01-24 10:35:58,0.0
-13916,-348,-216,303,48,-157,2024-01-24 10:35:58,0.0
-13868,-540,-52,324,122,-190,2024-01-24 10:35:58,0.0
-13728,-500,-40,261,164,-156,2024-01-24 10:35:58,0.0
-13704,-524,-92,224,198,-107,2024-01-24 10:35:58,0.0
-13672,-480,28,182,207,-95,2024-01-24 10:35:58,0.0
-13776,-376,-32,128,279,-90,2024-01-24 10:35:58,0.0
-13760,-424,-12,72,328,-70,2024-01-24 10:35:58,0.0
-13748,-360,-72,30,329,-70,2024-01-24 10:35:58,0.0
-13744,-512,-124,-21,338,-69,2024-01-24 10:35:58,0.0
-13692,-408,-56,-47,436,-91,2024-01-24 10:35:58,0.0
-13792,-468,68,-43,533,-103,2024-01-24 10:35:58,0.0
-13700,-424,0,-130,627,-67,2024-01-24 10:35:58,0.0
-13724,-440,-184,-136,608,-94,2024-01-24 10:35:58,0.0
-13804,-304,40,-113,736,-117,2024-01-24 10:35:58,0.0
-13808,-268,-212,-87,1185,-113,2024-01-24 10:35:58,0.0
-14316,-476,-172,-247,1350,-90,2024-01-24 10:35:58,0.0
-14332,-432,-316,-277,1123,-32,2024-01-24 10:35:58,0.0
-13712,-680,-272,-366,1126,-70,2024-01-24 10:35:58,0.0
-13824,-784,-604,-446,1530,-130,2024-01-24 10:35:58,0.0
-14132,-388,-940,-440,1812,-159,2024-01-24 10:35:58,0.0
-14168,-860,-612,-534,1710,-316,2024-01-24 10:35:58,0.0
-14180,-908,-60,-456,1114,-575,2024-01-24 10:35:58,0.0
-13736,-372,8,-462,263,-854,2024-01-24 10:35:58,0.0
-13608,-752,-152,-767,-88,-964,2024-01-24 10:35:58,0.0
-13224,-1704,1384,-271,-624,-1196,2024-01-24 10:35:58,0.0
-12896,-1828,1120,391,-668,-1303,2024-01-24 10:35:58,0.0
-12984,-1744,932,862,-210,-1150,2024-01-24 10:35:58,0.0
-13404,-1732,856,944,119,-866,2024-01-24 10:35:58,0.0
-13248,-1664,552,885,169,-695,2024-01-24 10:35:59,0.0
-13520,-1692,600,1075,66,-655,2024-01-24 10:35:59,0.0
-13668,-1504,836,1195,5,-523,2024-01-24 10:35:59,0.0
-14008,-1460,460,1227,399,-343,2024-01-24 10:35:59,0.0
-14104,-1436,120,1257,702,-235,2024-01-24 10:35:59,0.0
-13524,-1484,124,1487,522,-347,2024-01-24 10:35:59,0.0
-13128,-1516,-44,1598,572,-379,2024-01-24 10:35:59,0.0
-13080,-1708,-184,1768,1120,-313,2024-01-24 10:35:59,0.0
-13092,-1716,328,1887,1439,-137,2024-01-24 10:35:59,0.0
-12852,-1544,728,1903,1554,-19,2024-01-24 10:35:59,0.0
-13068,-1304,444,1920,1993,62,2024-01-24 10:35:59,0.0
-13600,-1004,316,1988,2408,212,2024-01-24 10:35:59,0.0
-14304,-1212,524,2082,2349,459,2024-01-24 10:35:59,0.0
-14300,-1088,632,1769,1716,681,2024-01-24 10:35:59,0.0
-14148,-1240,1044,1602,1293,916,2024-01-24 10:35:59,0.0
-14192,-1244,968,1556,1354,986,2024-01-24 10:35:59,0.0
-14532,-944,648,1457,1320,912,2024-01-24 10:35:59,0.0
-15268,-252,-168,1148,1080,1040,2024-01-24 10:35:59,0.0
-15548,464,-1028,652,764,1267,2024-01-24 10:35:59,0.0
-14976,300,-1968,-106,-64,1277,2024-01-24 10:35:59,0.0
-14284,380,-1956,-872,-1221,810,2024-01-24 10:35:59,0.0
-13044,1400,-1816,-2117,-2771,363,2024-01-24 10:35:59,
-11232,2420,-1416,-2890,-3178,-319,2024-01-24 10:35:59,0.0
-9748,2824,336,-2999,-1170,-975,2024-01-24 10:35:59,0.0
-10036,2520,920,-2853,2289,-1211,2024-01-24 10:35:59,0.0
-13664,508,708,-2644,5470,-951,2024-01-24 10:35:59,0.0
-18236,-736,1636,-2639,5215,187,2024-01-24 10:35:59,0.0
-19148,-1532,2504,-2166,2938,1282,2024-01-24 10:35:59,0.0
-17096,-684,1884,-1539,594,2267,2024-01-24 10:35:59,0.0
-14528,-428,1612,-1360,-396,2583,2024-01-24 10:35:59,0.0
-13772,-620,1680,-1082,-29,2850,2024-01-24 10:35:59,0.0
-12876,-264,1656,-882,289,3130,2024-01-24 10:35:59,0.0
-12120,60,1668,-825,285,3077,2024-01-24 10:35:59,0.0
-11760,560,1692,-832,259,2899,2024-01-24 10:35:59,0.0
-11984,796,2104,-704,112,2664,2024-01-24 10:35:59,0.0
-12096,516,2656,-418,-162,2450,2024-01-24 10:35:59,0.0
-11912,108,2584,77,-87,1895,2024-01-24 10:35:59,0.0
-12496,-16,2856,583,89,1577,2024-01-24 10:35:59,0.0
-12888,12,3028,981,90,1389,2024-01-24 10:35:59,0.0
-13048,492,2508,1338,-228,1417,2024-01-24 10:35:59,0.0
-12524,188,2076,1224,-494,996,2024-01-24 10:35:59,0.0
-12640,536,3024,1488,-824,867,2024-01-24 10:35:59,0.0
-12832,516,3912,2027,-1195,672,2024-01-24 10:35:59,0.0
-12768,604,4404,2595,-1381,366,2024-01-24 10:35:59,0.0
-12908,660,4256,3265,-1323,12,2024-01-24 10:35:59,0.0
-13200,608,4524,4245,-820,-155,2024-01-24 10:35:59,0.0
-13536,-228,3804,5161,-635,-133,2024-01-24 10:35:59,0.0
-13488,676,3328,6107,-485,176,2024-01-24 10:35:59,0.0
-13060,2088,3500,6861,-67,793,2024-01-24 10:35:59,0.0
-12024,2684,3924,7005,811,810,2024-01-24 10:35:59,0.0
-11832,5044,1728,6502,3971,461,2024-01-24 10:35:59,0.0
-16520,6956,-452,5397,7840,2,2024-01-24 10:35:59,0.0
-23996,7356,-352,3948,7571,211,2024-01-24 10:35:59,0.0
-26312,5956,-248,1823,1394,2248,2024-01-24 10:35:59,0.0
-22212,4008,-372,825,-1368,3180,2024-01-24 10:35:59,0.0
-13700,2228,-1768,208,-2209,1061,2024-01-24 10:35:59,0.0
-12272,4224,-3188,605,-2404,-50,2024-01-24 10:35:59,0.0
-13348,4176,-3836,523,-1402,-729,2024-01-24 10:35:59,0.0
-15424,836,-5792,478,-758,-1559,2024-01-24 10:35:59,0.0
-17484,-1216,-6900,-526,-1126,-2062,2024-01-24 10:35:59,0.0
-18716,-512,-5048,-1601,-1430,-1253,2024-01-24 10:36:00,0.0
-17192,-1896,-2248,-1622,-588,-596,2024-01-24 10:36:00,0.0
-15544,-2640,-1608,-1366,609,-1641,2024-01-24 10:36:00,0.0
-15188,-2788,-2272,-1540,79,-3064,2024-01-24 10:36:00,0.0
-14248,-2620,-2424,-1627,-829,-4657,2024-01-24 10:36:00,0.0
-12796,-2300,-1340,-1298,-985,-6064,2024-01-24 10:36:00,0.0
-11444,-1776,-540,-756,-910,-6823,2024-01-24 10:36:00,0.0
-10440,-1576,-668,-419,-1013,-7222,2024-01-24 10:36:00,0.0
-8976,-1288,-420,-439,-932,-7387,2024-01-24 10:36:00,0.0
-8156,-732,168,-666,-1482,-7137,2024-01-24 10:36:00,0.0
-6820,-1072,440,-728,-1105,-6979,2024-01-24 10:36:00,0.0
-6672,-1280,648,-1077,-729,-6227,2024-01-24 10:36:00,0.0
-6720,-1660,764,-1773,-57,-5620,2024-01-24 10:36:00,0.0
-8124,-1480,1300,-2482,757,-4634,2024-01-24 10:36:00,0.0
-8968,-1600,940,-3042,1144,-3694,2024-01-24 10:36:00,0.0
-10160,-2432,992,-3536,1091,-2403,2024-01-24 10:36:00,0.0
-11020,-2356,1948,-4258,614,-688,2024-01-24 10:36:00,0.0
-12208,-1896,3332,-5005,-508,722,2024-01-24 10:36:00,0.0
-12968,-1336,3592,-5540,-1570,1975,2024-01-24 10:36:00,0.0
-14104,-2024,2552,-5713,-1945,2456,2024-01-24 10:36:00,0.0
-13800,-1956,1320,-5751,-621,2110,2024-01-24 10:36:00,0.0
-13800,-1452,1540,-5688,2076,688,2024-01-24 10:36:00,0.0
-15956,-1900,3124,-5372,4446,-2162,2024-01-24 10:36:00,0.0
-18436,-4232,3664,-5246,4483,-4272,2024-01-24 10:36:00,0.0
-19648,-5408,5312,-4714,2439,-4564,2024-01-24 10:36:00,0.0
-17600,-5896,6000,-4355,703,-4143,2024-01-24 10:36:00,0.0
-14124,-13796,-2624,-3494,7074,-5294,2024-01-24 10:36:00,0.0
-26048,-8896,920,-1496,4926,-6546,2024-01-24 10:36:00,0.0
-24348,-9100,-2112,1931,-1224,-9175,2024-01-24 10:36:00,0.0
-22604,-5272,-5868,5542,-4350,-7813,2024-01-24 10:36:00,0.0
-16300,-3684,-12120,5452,-6477,-4878,2024-01-24 10:36:00,0.0
-9076,-2252,-10956,2588,-5180,-2109,2024-01-24 10:36:00,0.0
-7864,-4204,-7276,2259,-1462,-1903,2024-01-24 10:36:00,0.0
-16712,-900,-3788,622,27,-968,2024-01-24 10:36:00,0.0
-24708,2108,-2268,-571,-990,2415,2024-01-24 10:36:00,0.0
-24120,3220,-5820,-425,-1128,5898,2024-01-24 10:36:00,0.0
-20072,4124,-5748,-1873,-2663,6343,2024-01-24 10:36:00,0.0
-16596,1764,-196,-2540,-6208,5388,2024-01-24 10:36:00,0.0
-13656,-1044,576,-1633,-7539,5941,2024-01-24 10:36:00,0.0
-9480,-2900,-1468,-744,-5327,6962,2024-01-24 10:36:00,0.0
-7464,-3560,-1028,-239,-1223,7565,2024-01-24 10:36:00,0.0
-8684,-3436,1048,524,-596,8950,2024-01-24 10:36:00,0.0
-8064,-2972,2212,1623,-878,9210,2024-01-24 10:36:00,0.0
-6832,-2988,2008,2571,-2719,7663,2024-01-24 10:36:00,0.0
-5704,-1928,1604,3036,-3768,5639,2024-01-24 10:36:00,0.0
-4016,-1372,1408,3366,-2723,4139,2024-01-24 10:36:00,0.0
-3660,-640,1368,3361,-1370,2708,2024-01-24 10:36:00,0.0
-4324,1380,2744,3465,-210,1387,2024-01-24 10:36:00,0.0
-5320,2260,4276,3272,-362,-27,2024-01-24 10:36:00,0.0
-7200,3080,5388,3435,-1096,-1355,2024-01-24 10:36:00,0.0
-11328,3116,2880,3254,-1908,-2427,2024-01-24 10:36:00,0.0
-13108,1344,2688,3043,-2952,-2395,2024-01-24 10:36:00,0.0
-12224,-948,864,2879,-3060,-2700,2024-01-24 10:36:00,0.0
-10804,-1164,-1328,2133,113,-2387,2024-01-24 10:36:00,0.0
-14620,-1516,1080,1633,3990,-929,2024-01-24 10:36:00,0.0
-21228,304,3616,1394,6325,1477,2024-01-24 10:36:00,0.0
-22124,1304,7812,2003,5493,2203,2024-01-24 10:36:00,0.0
-21080,-24,9244,4393,3715,2193,2024-01-24 10:36:00,0.0
-19368,300,6104,5224,2865,2198,2024-01-24 10:36:00,0.0
-18660,8228,-3752,3991,7706,3432,2024-01-24 10:36:01,0.0
-28976,3116,-2656,1881,2799,4302,2024-01-24 10:36:01,0.0
-28712,7252,-5984,-683,-1786,6326,2024-01-24 10:36:01,
-19188,10516,-10756,-3966,-2643,9012,2024-01-24 10:36:01,0.0
-12232,4872,-7636,-5418,-5046,6974,2024-01-24 10:36:01,0.0
-6824,-1264,-6856,-4183,-5470,4919,2024-01-24 10:36:01,0.0
-8516,-2004,-2016,-2190,-2324,3224,2024-01-24 10:36:01,0.0
-12608,-4372,-68,-1392,190,892,2024-01-24 10:36:01,0.0
-17096,-4472,-544,-42,874,-1594,2024-01-24 10:36:01,0.0
-21332,-3316,-3800,-81,459,-4262,2024-01-24 10:36:01,0.0
-22136,-1840,-2116,-1081,-2409,-4724,2024-01-24 10:36:01,0.0
-17876,-948,4,-2584,-6253,-5264,2024-01-24 10:36:01,0.0
-13496,-24,-84,-3222,-7056,-5242,2024-01-24 10:36:01,0.0
-7844,1304,-1204,-3693,-4769,-5466,2024-01-24 10:36:01,0.0
-5640,1528,-740,-4517,-3609,-6817,2024-01-24 10:36:01,0.0
-6524,864,1356,-5052,-4252,-7592,2024-01-24 10:36:01,0.0
-8148,-68,2180,-5282,-5596,-7031,2024-01-24 10:36:01,0.0
-8296,-692,1476,-5580,-4470,-5041,2024-01-24 10:36:01,0.0
-6052,-1256,1280,-5762,-3176,-4082,2024-01-24 10:36:01,0.0
-5892,-920,2360,-5762,-1863,-3118,2024-01-24 10:36:01,0.0
-5816,-1508,2572,-5661,-367,-1897,2024-01-24 10:36:01,0.0
-5844,-2380,3516,-5662,745,-663,2024-01-24 10:36:01,0.0
-7008,-2544,3884,-5941,1811,798,2024-01-24 10:36:01,0.0
-9232,-1284,3844,-6600,2746,2703,2024-01-24 10:36:01,0.0
-11088,-860,4700,-6163,2741,4136,2024-01-24 10:36:01,0.0
-12740,-2084,3392,-5451,1203,4110,2024-01-24 10:36:01,0.0
-13128,-2852,1824,-4789,681,3822,2024-01-24 10:36:01,0.0
-13048,-3212,776,-4757,3167,2302,2024-01-24 10:36:01,0.0
-16700,-2524,5100,-5288,6943,-1064,2024-01-24 10:36:01,0.0
-18956,-2536,6964,-3997,8341,-4541,2024-01-24 10:36:01,0.0
-21200,-3668,6228,-2672,6100,-4861,2024-01-24 10:36:01,0.0
-18240,-3728,7356,-3396,3678,-2788,2024-01-24 10:36:01,0.0
-10376,-7996,260,-3112,9484,-2149,2024-01-24 10:36:01,0.0
-22308,-8112,2792,-2226,11183,-5597,2024-01-24 10:36:01,0.0
-25764,-6460,784,857,4822,-8197,2024-01-24 10:36:01,0.0
-21780,-14124,-2780,4032,4228,-11366,2024-01-24 10:36:01,0.0
-22072,-9752,-5512,8857,1896,-11781,2024-01-24 10:36:01,0.0
-19084,-612,-10068,7915,-3124,-8244,2024-01-24 10:36:01,0.0
-12216,300,-10392,4749,-4382,-4186,2024-01-24 10:36:01,0.0
-13268,-288,-5572,2538,-1066,-1686,2024-01-24 10:36:01,0.0
-18968,1840,-3584,1070,1098,1536,2024-01-24 10:36:01,0.0
-23580,4848,-4416,-426,684,5357,2024-01-24 10:36:01,0.0
-20656,4192,-4668,-949,-259,5777,2024-01-24 10:36:01,0.0
-18276,1372,-304,-1110,-4073,3813,2024-01-24 10:36:01,0.0
-17128,-1936,1588,-204,-8005,3660,2024-01-24 10:36:01,0.0
-13512,-3728,416,973,-8088,4445,2024-01-24 10:36:01,0.0
-9124,-4024,-1272,1917,-4779,5576,2024-01-24 10:36:01,0.0
-7848,-3312,-16,3233,-3096,7537,2024-01-24 10:36:01,0.0
-5720,-3404,1492,5012,-2068,8576,2024-01-24 10:36:01,0.0
-5056,-2872,2260,5972,-2153,7104,2024-01-24 10:36:01,0.0
-5568,-1688,2076,6909,-2892,5262,2024-01-24 10:36:01,0.0
-4616,-956,1116,7419,-2129,3926,2024-01-24 10:36:01,0.0
-3736,-636,1260,7369,-120,2660,2024-01-24 10:36:01,0.0
-3736,1052,1612,6808,2437,1037,2024-01-24 10:36:01,0.0
-5436,3296,3452,6619,3167,-244,2024-01-24 10:36:01,0.0
-7148,3892,4464,6356,2426,-1947,2024-01-24 10:36:01,0.0
-9692,3544,3784,6144,1370,-2924,2024-01-24 10:36:01,0.0
-12544,3172,2720,5521,339,-3214,2024-01-24 10:36:01,0.0
-14404,2624,2128,4483,-1316,-2952,2024-01-24 10:36:01,0.0
-13012,1712,-648,3255,-1135,-2746,2024-01-24 10:36:02,0.0
-12144,148,-652,2102,2313,-2489,2024-01-24 10:36:02,0.0
-17532,-1552,2160,1413,5409,-1993,2024-01-24 10:36:02,0.0
-25772,936,5164,997,5273,610,2024-01-24 10:36:02,0.0
-21828,2624,6860,890,3139,1782,2024-01-24 10:36:02,0.0
-18472,1468,8864,1475,1119,1201,2024-01-24 10:36:02,0.0
-17084,5164,2084,1769,4836,1595,2024-01-24 10:36:02,0.0
-25608,2620,-1572,467,5075,4138,2024-01-24 10:36:02,0.0
-26616,2272,-4960,-2306,-1770,5333,2024-01-24 10:36:02,0.0
-21388,8416,-9088,-4260,-2287,7599,2024-01-24 10:36:02,0.0
-15820,5436,-8436,-5877,-3455,7773,2024-01-24 10:36:02,0.0
-10304,656,-6748,-5920,-3452,6503,2024-01-24 10:36:02,0.0
-7836,-3396,-2676,-4324,-572,4296,2024-01-24 10:36:02,0.0
-11412,-4052,1152,-3010,3201,2108,2024-01-24 10:36:02,0.0
-17064,-5328,1344,-858,2643,-1391,2024-01-24 10:36:02,0.0
-19820,-3660,-3080,-622,-513,-4694,2024-01-24 10:36:02,0.0
-21800,-776,-4292,-1742,-2233,-5511,2024-01-24 10:36:02,0.0
-17928,1632,-1936,-3416,-3046,-5286,2024-01-24 10:36:02,0.0
-13276,1988,-800,-4555,-3478,-5252,2024-01-24 10:36:02,0.0
-8940,1836,-1120,-4989,-2956,-5435,2024-01-24 10:36:02,0.0
-6212,1288,-468,-5304,-2020,-6156,2024-01-24 10:36:02,0.0
-4796,-296,420,-5413,-1816,-7032,2024-01-24 10:36:02,0.0
-5872,-2300,1048,-5555,-425,-7082,2024-01-24 10:36:02,0.0
-7912,-3100,792,-5924,201,-5404,2024-01-24 10:36:02,0.0
-7968,-2636,616,-6441,758,-3584,2024-01-24 10:36:02,0.0
-6868,-1632,1300,-6666,941,-2759,2024-01-24 10:36:02,0.0
-7064,-484,1836,-6449,2116,-2200,2024-01-24 10:36:02,0.0
-8144,-48,2996,-5989,2393,-1046,2024-01-24 10:36:02,0.0
-9480,-1780,3924,-5582,1319,795,2024-01-24 10:36:02,0.0
-10624,-2264,3904,-5747,195,2712,2024-01-24 10:36:02,0.0
-11576,-2076,3960,-5721,-260,3559,2024-01-24 10:36:02,0.0
-12232,-3508,2828,-5306,-345,3738,2024-01-24 10:36:02,0.0
-12560,-5212,1824,-4396,-9,2931,2024-01-24 10:36:02,0.0
-13152,-5472,856,-3189,2505,1038,2024-01-24 10:36:02,0.0
-15940,-2924,2712,-3029,4873,-453,2024-01-24 10:36:02,0.0
-16320,-1068,5020,-2549,5975,-1505,2024-01-24 10:36:02,0.0
-18232,248,5732,-2273,6333,-3548,2024-01-24 10:36:02,0.0
-19684,-648,6024,-2193,4723,-3507,2024-01-24 10:36:02,0.0
-16060,-3316,5292,-2408,3852,-2265,2024-01-24 10:36:02,0.0
-13620,-11816,-1208,-2798,11527,-5016,2024-01-24 10:36:02,0.0
-26464,-5792,2088,-168,6374,-7684,2024-01-24 10:36:02,0.0
-23644,-8664,-4440,1855,1055,-10683,2024-01-24 10:36:02,0.0
-22376,-6844,-5612,6692,-1917,-9010,2024-01-24 10:36:02,0.0
-18012,-2864,-9840,7140,-4158,-8733,2024-01-24 10:36:02,
-12752,-136,-11100,4796,-4948,-5538,2024-01-24 10:36:02,0.0
-8920,-1076,-6672,2269,-1541,-3193,2024-01-24 10:36:02,0.0
-14076,-1096,-2304,489,1947,-1624,2024-01-24 10:36:02,0.0
-21964,1488,-2504,-1119,1811,1694,2024-01-24 10:36:02,0.0
-24700,3928,-3848,-1509,-1125,5340,2024-01-24 10:36:02,0.0
-19820,2584,-3920,-933,-3075,5254,2024-01-24 10:36:02,0.0
-17708,192,-1052,-413,-4733,3504,2024-01-24 10:36:02,0.0
-17280,-2476,1060,31,-6238,3714,2024-01-24 10:36:02,0.0
-14528,-4264,380,1253,-5772,5138,2024-01-24 10:36:02,0.0
-10528,-4016,-888,2424,-2950,6684,2024-01-24 10:36:02,0.0
-8756,-3140,304,3134,-2197,8533,2024-01-24 10:36:02,0.0
-6740,-2348,1624,4243,-1257,9271,2024-01-24 10:36:02,0.0
-5200,-1564,2324,5259,-756,7921,2024-01-24 10:36:02,0.0
-5440,-672,2112,6119,-2766,5475,2024-01-24 10:36:02,0.0
-4936,836,792,6446,-3185,3925,2024-01-24 10:36:02,0.0
-4208,288,320,6113,-1514,2855,2024-01-24 10:36:02,0.0
-3760,1532,1572,5844,14,1698,2024-01-24 10:36:03,0.0
-4700,1612,2944,5686,1125,606,2024-01-24 10:36:03,0.0
-6332,1760,3780,5832,1653,-577,2024-01-24 10:36:03,0.0
-9024,1924,2952,5415,1275,-1589,2024-01-24 10:36:03,0.0
-12796,2196,2400,4730,-390,-1972,2024-01-24 10:36:03,0.0
-14156,1832,2060,4409,-2430,-1905,2024-01-24 10:36:03,0.0
-11400,1320,-1184,3200,-2778,-2150,2024-01-24 10:36:03,0.0
-12596,1376,-248,1368,11,-1655,2024-01-24 10:36:03,0.0
-18732,412,3748,598,3845,-815,2024-01-24 10:36:03,0.0
-24972,1968,5716,278,4562,1448,2024-01-24 10:36:03,0.0
-21168,2020,7620,340,2218,2172,2024-01-24 10:36:03,0.0
-18572,1980,8684,928,387,1709,2024-01-24 10:36:03,0.0
-18072,6620,636,888,5586,2456,2024-01-24 10:36:03,0.0
-27668,2316,-1020,-1068,3182,4097,2024-01-24 10:36:03,0.0
-28548,5076,-7812,-3765,177,6727,2024-01-24 10:36:03,0.0
-21064,8052,-7600,-5807,-2205,9214,2024-01-24 10:36:03,0.0
-15700,3940,-5664,-5816,-3280,8223,2024-01-24 10:36:03,0.0
-11520,-280,-4348,-4345,-4411,7054,2024-01-24 10:36:03,0.0
-8156,-4956,-2092,-1789,-3236,4132,2024-01-24 10:36:03,0.0
-10888,-7168,1328,17,716,1246,2024-01-24 10:36:03,0.0
-15132,-7488,1796,2161,2118,-1254,2024-01-24 10:36:03,0.0
-18776,-4756,-2512,2653,1926,-3857,2024-01-24 10:36:03,0.0
-21376,24,-2996,1718,838,-4139,2024-01-24 10:36:03,0.0
-18076,2216,-880,267,-1863,-4352,2024-01-24 10:36:03,0.0
-12856,2936,184,-1079,-4100,-4766,2024-01-24 10:36:03,0.0
-7132,2928,-920,-1928,-2899,-5267,2024-01-24 10:36:03,0.0
-4464,2316,-524,-2580,-683,-6506,2024-01-24 10:36:03,0.0
-5296,488,344,-2864,257,-7657,2024-01-24 10:36:03,0.0
-7800,-1280,1264,-3376,-141,-7716,2024-01-24 10:36:03,0.0
-9260,-2456,496,-4585,763,-6011,2024-01-24 10:36:03,0.0
-8584,-2460,484,-5309,1060,-4655,2024-01-24 10:36:03,0.0
-8044,-2344,1020,-5810,1560,-3322,2024-01-24 10:36:03,0.0
-8324,-1280,1968,-5852,2500,-1939,2024-01-24 10:36:03,0.0
-8768,-1504,2696,-5572,2682,-725,2024-01-24 10:36:03,0.0
-9552,-2268,3188,-5376,2723,767,2024-01-24 10:36:03,0.0
-11208,-2460,4236,-5256,2269,2278,2024-01-24 10:36:03,0.0
-12440,-2160,4652,-5088,971,3523,2024-01-24 10:36:03,0.0
-12348,-2044,3516,-4248,-201,4278,2024-01-24 10:36:03,0.0
-12616,-2136,4076,-3029,-1199,3994,2024-01-24 10:36:03,0.0
-12220,-2868,2104,-2322,-607,2528,2024-01-24 10:36:03,0.0
-11832,-3104,1108,-1790,3138,654,2024-01-24 10:36:03,0.0
-14476,-1356,2720,-1183,5990,-852,2024-01-24 10:36:03,0.0
-16000,-1372,3300,-864,5630,-2735,2024-01-24 10:36:03,0.0
-16044,-416,4664,-1378,5083,-4798,2024-01-24 10:36:03,0.0
-14524,-1744,1428,-1725,8467,-4728,2024-01-24 10:36:03,0.0
-19528,-6912,828,-1344,12765,-6056,2024-01-24 10:36:03,0.0
-25564,-8464,824,891,7226,-9300,2024-01-24 10:36:03,0.0
-29124,-6768,-2232,2605,2007,-12853,2024-01-24 10:36:03,0.0
-27632,-6992,-1588,7336,-4325,-10956,2024-01-24 10:36:03,0.0
-16760,-4156,-11144,6798,-5680,-7310,2024-01-24 10:36:03,0.0
-11208,-3204,-10064,4331,-5973,-4764,2024-01-24 10:36:03,0.0
-8384,-1180,-8072,2054,-2650,-1752,2024-01-24 10:36:03,0.0
-10756,1340,-4820,-229,1791,131,2024-01-24 10:36:03,0.0
-19236,4000,-1276,-2575,2445,868,2024-01-24 10:36:03,0.0
-24040,4424,-816,-1984,-252,2132,2024-01-24 10:36:03,0.0
-21264,3172,-5656,-1527,-2234,3022,2024-01-24 10:36:03,0.0
-17908,304,-4476,-2655,-4264,2622,2024-01-24 10:36:03,0.0
-15304,-2764,-448,-2627,-5850,2925,2024-01-24 10:36:03,0.0
-12944,-4812,-600,-1345,-5371,3567,2024-01-24 10:36:03,0.0
-11416,-5032,-1892,-173,-2512,4664,2024-01-24 10:36:03,0.0
-11168,-3756,24,1023,-2517,6322,2024-01-24 10:36:04,0.0
-10196,-2604,1384,2052,-2690,7393,2024-01-24 10:36:04,0.0
-9364,-116,1432,3011,-3305,7331,2024-01-24 10:36:04,0.0
-7488,620,836,3589,-3863,5654,2024-01-24 10:36:04,0.0
-7672,536,924,3855,-4358,4053,2024-01-24 10:36:04,0.0
-5472,952,300,3645,-3062,3441,2024-01-24 10:36:04,0.0
-4208,408,916,3424,-387,2638,2024-01-24 10:36:04,0.0
-4820,504,1352,2628,1757,983,2024-01-24 10:36:04,0.0
-6528,1024,2964,2100,2630,-436,2024-01-24 10:36:04,0.0
-8340,1328,4160,2197,2218,-1854,2024-01-24 10:36:04,0.0
-10548,852,4268,2282,1089,-2681,2024-01-24 10:36:04,0.0
-12360,880,4300,2222,-650,-2951,2024-01-24 10:36:04,0.0
-13664,1488,3528,1828,-2453,-2690,2024-01-24 10:36:04,0.0
-12636,1460,1612,1786,-2134,-2225,2024-01-24 10:36:04,0.0
-12064,784,1564,1301,-400,-1916,2024-01-24 10:36:04,0.0
-13408,-1420,3124,1143,1473,-1954,2024-01-24 10:36:04,0.0
-17344,-2792,4104,1067,2784,-1902,2024-01-24 10:36:04,0.0
-20544,-2412,5756,1406,3085,-395,2024-01-24 10:36:04,0.0
-19168,-844,8380,2966,2215,411,2024-01-24 10:36:04,0.0
-16780,-120,8364,4048,1725,-258,2024-01-24 10:36:04,0.0
-15688,5164,1268,4135,7462,163,2024-01-24 10:36:04,0.0
-25572,1696,-1380,2638,7378,2999,2024-01-24 10:36:04,0.0
-30580,6760,-3128,-204,1722,5586,2024-01-24 10:36:04,0.0
-23608,8044,-7860,-2728,-305,8388,2024-01-24 10:36:04,
-18768,8780,-8212,-5886,-1006,7801,2024-01-24 10:36:04,0.0
-14152,2808,-6804,-7070,-1816,6939,2024-01-24 10:36:04,0.0
-10156,-4100,-2808,-5605,-3123,5422,2024-01-24 10:36:04,0.0
-7856,-6828,-1864,-3305,-1882,3571,2024-01-24 10:36:04,0.0
-8520,-10024,-3016,-2595,-663,132,2024-01-24 10:36:04,0.0
-14068,-4596,-5364,-3261,799,-2500,2024-01-24 10:36:04,0.0
-17208,-860,-7328,-4118,1977,-2464,2024-01-24 10:36:04,0.0
-16988,2420,-6832,-6251,1209,-2611,2024-01-24 10:36:04,0.0
-15100,3200,-5156,-9404,-1062,-3746,2024-01-24 10:36:04,0.0
-11448,3312,-5756,-11342,-1605,-4524,2024-01-24 10:36:04,0.0
-8072,3372,-5276,-12441,-334,-5362,2024-01-24 10:36:04,0.0
-6588,2428,-4100,-13331,1012,-6079,2024-01-24 10:36:04,0.0
-7480,128,-2212,-14052,1035,-6557,2024-01-24 10:36:04,0.0
-9856,-1328,-2172,-15334,2677,-5995,2024-01-24 10:36:04,0.0
-11880,-1696,-2896,-16997,4233,-4871,2024-01-24 10:36:04,0.0
-12512,-1624,-2144,-18081,5522,-4917,2024-01-24 10:36:04,0.0
-13892,-1572,-1884,-18169,4706,-5099,2024-01-24 10:36:04,0.0
-14116,-1392,-1924,-18152,3419,-4477,2024-01-24 10:36:04,0.0
-13696,-936,-2048,-18222,2055,-3421,2024-01-24 10:36:04,0.0
-13228,-812,-2392,-18472,1188,-2280,2024-01-24 10:36:04,0.0
-13836,-1064,-2188,-19051,390,-1284,2024-01-24 10:36:04,0.0
-14140,-804,-1500,-19390,-390,-1000,2024-01-24 10:36:04,0.0
-14380,-556,-1648,-19553,-1541,-902,2024-01-24 10:36:04,0.0
-14740,-124,-2240,-19921,-3261,-936,2024-01-24 10:36:04,0.0
-13728,284,-1768,-20392,-5160,-601,2024-01-24 10:36:04,0.0
-11816,-204,-2280,-20705,-4935,-408,2024-01-24 10:36:04,0.0
-11468,-1172,-2388,-21080,-3389,-378,2024-01-24 10:36:04,0.0
-12044,-4004,-1956,-21074,-1149,-616,2024-01-24 10:36:04,0.0
-11660,-6580,-3728,-20017,1325,-705,2024-01-24 10:36:04,0.0
-11164,-6960,-4016,-19185,1720,-820,2024-01-24 10:36:04,0.0
-10300,-5868,-3060,-18038,1947,-594,2024-01-24 10:36:04,0.0
-9952,-3868,-2868,-17082,3244,-628,2024-01-24 10:36:04,0.0
-10128,-3936,-2888,-16146,5569,-777,2024-01-24 10:36:04,0.0
-11140,-4688,-3484,-15442,8744,-922,2024-01-24 10:36:04,0.0
-13540,-4944,-4564,-15058,11820,-1820,2024-01-24 10:36:05,0.0
-16912,-3036,-6496,-14263,13242,-3162,2024-01-24 10:36:05,0.0
-21072,1664,-5864,-13843,10061,-4699,2024-01-24 10:36:05,0.0
-19036,6244,-3692,-14808,1799,-5247,2024-01-24 10:36:05,0.0
-15208,5568,-3624,-15495,690,-5054,2024-01-24 10:36:05,0.0
-12296,4140,-4316,-16428,2463,-4405,2024-01-24 10:36:05,0.0
-12000,3424,-4800,-17816,3848,-3811,2024-01-24 10:36:05,0.0
-12612,2980,-4372,-18899,4111,-2975,2024-01-24 10:36:05,0.0
-13752,1568,-3416,-19720,3714,-2149,2024-01-24 10:36:05,0.0
-15004,1028,-2400,-20023,2888,-1523,2024-01-24 10:36:05,0.0
-15148,504,-2248,-19837,1903,-1587,2024-01-24 10:36:05,0.0
-14884,624,-1880,-19505,794,-2100,2024-01-24 10:36:05,0.0
-14096,1268,-1860,-19333,-326,-2374,2024-01-24 10:36:05,0.0
-12460,1980,-2296,-19327,-575,-2528,2024-01-24 10:36:05,0.0
-11624,1980,-2424,-19221,-23,-2691,2024-01-24 10:36:05,0.0
-11400,1724,-2368,-19096,674,-3008,2024-01-24 10:36:05,0.0
-11624,1328,-1832,-18806,1017,-3541,2024-01-24 10:36:05,0.0
-12016,1244,-1880,-18283,1089,-4055,2024-01-24 10:36:05,0.0
-12232,1288,-2544,-17809,1064,-4212,2024-01-24 10:36:05,0.0
-12000,884,-2896,-17530,1088,-4134,2024-01-24 10:36:05,0.0
-12060,724,-2496,-17296,1507,-4131,2024-01-24 10:36:05,0.0
-12380,860,-2728,-17009,1932,-4211,2024-01-24 10:36:05,0.0
-13268,1316,-3224,-16916,1893,-4439,2024-01-24 10:36:05,0.0
-14072,2348,-3380,-17020,1284,-4544,2024-01-24 10:36:05,0.0
-14164,2748,-3408,-17122,705,-4552,2024-01-24 10:36:05,0.0
-13908,2312,-3280,-17080,291,-4561,2024-01-24 10:36:05,0.0
-13424,1476,-3172,-16996,-198,-4618,2024-01-24 10:36:05,0.0
-12620,1224,-3364,-16770,-319,-4645,2024-01-24 10:36:05,0.0
-11820,864,-3284,-16524,-36,-4507,2024-01-24 10:36:05,0.0
-11868,460,-2800,-16243,426,-4773,2024-01-24 10:36:05,0.0
-13220,44,-2204,-15654,522,-5175,2024-01-24 10:36:05,0.0
-13732,96,-2740,-15181,-441,-5096,2024-01-24 10:36:05,0.0
-13808,456,-3228,-14918,-1209,-4917,2024-01-24 10:36:05,0.0
-13912,-64,-3172,-14626,-1422,-4612,2024-01-24 10:36:05,0.0
-13624,-284,-1684,-14026,-1570,-4553,2024-01-24 10:36:05,0.0
-13432,-376,-444,-13245,-1884,-4583,2024-01-24 10:36:05,0.0
-13572,-1352,80,-12338,-1971,-4447,2024-01-24 10:36:05,0.0
-14288,-2000,-232,-11309,-1433,-4088,2024-01-24 10:36:05,0.0
-15436,-2028,-188,-9975,-1422,-3308,2024-01-24 10:36:05,0.0
-15184,-1336,108,-8989,-1944,-2541,2024-01-24 10:36:05,0.0
-14180,-916,4,-8000,-2041,-2017,2024-01-24 10:36:05,0.0
-13664,-648,28,-7139,-1644,-1719,2024-01-24 10:36:05,0.0
-13068,-580,-284,-6154,-1088,-1520,2024-01-24 10:36:05,0.0
-12744,-216,-836,-5187,-351,-1330,2024-01-24 10:36:05,0.0
-13008,-76,-1604,-4531,409,-1201,2024-01-24 10:36:05,0.0
-13192,-620,-1956,-4242,727,-1193,2024-01-24 10:36:05,0.0
-13600,-1072,-1784,-3865,624,-1156,2024-01-24 10:36:05,0.0
-14056,-1100,-1136,-3220,465,-1034,2024-01-24 10:36:05,0.0
-13992,-1084,-880,-2529,478,-1059,2024-01-24 10:36:05,0.0
-13764,-992,-712,-1913,124,-1140,2024-01-24 10:36:05,0.0
-14008,-892,-848,-1299,-203,-1031,2024-01-24 10:36:05,0.0
-14008,-1220,-736,-715,-484,-862,2024-01-24 10:36:05,0.0
-13788,-1120,-784,-177,-835,-698,2024-01-24 10:36:05,0.0
-13916,-688,-936,63,-1100,-635,2024-01-24 10:36:05,0.0
-13644,-392,-1316,266,-1269,-534,2024-01-24 10:36:05,0.0
-13160,-320,-1856,305,-1107,-571,2024-01-24 10:36:05,0.0
-13016,-292,-1908,169,-824,-673,2024-01-24 10:36:05,0.0
-13140,-312,-1848,47,-533,-653,2024-01-24 10:36:05,0.0
-13300,-544,-1252,185,-401,-663,2024-01-24 10:36:05,0.0
-13500,-660,-1148,322,-229,-588,2024-01-24 10:36:05,0.0
-13636,-416,-1184,462,-1,-509,2024-01-24 10:36:05,0.0
-13732,-464,-1316,568,-75,-434,2024-01-24 10:36:05,0.0
-13832,-436,-1284,684,-235,-348,2024-01-24 10:36:05,0.0
-13708,-420,-1076,870,-328,-309,2024-01-24 10:36:06,0.0
-13760,-400,-1060,1027,-466,-357,2024-01-24 10:36:06,0.0
-13596,-308,-1068,1127,-661,-390,2024-01-24 10:36:06,
