acceleration_x,acceleration_y,acceleration_z,gyroscope_x,gyroscope_y,gyroscope_z,timestamp,label
-12920,-1004,-356,-1200,-3123,75,2024-01-24 10:37:17,0.0
-12636,-704,-256,-1306,-2490,231,2024-01-24 10:37:17,0.0
-12764,-988,-76,-1310,-1651,33,2024-01-24 10:37:17,0.0
-13196,-1288,128,-1236,-1232,-153,2024-01-24 10:37:17,0.0
-13364,-1548,192,-991,-942,-255,2024-01-24 10:37:17,0.0
-13180,-1280,88,-825,-352,-191,2024-01-24 10:37:17,0.0
-12916,-500,-524,-655,521,14,2024-01-24 10:37:17,0.0
-12616,-468,-664,-726,1373,44,2024-01-24 10:37:17,0.0
-13452,-540,-460,-796,2069,-77,2024-01-24 10:37:17,0.0
-14180,-936,-404,-817,2125,-200,2024-01-24 10:37:17,0.0
-14644,-1044,-492,-658,1675,-265,2024-01-24 10:37:17,0.0
-14880,-656,-436,-538,1070,-220,2024-01-24 10:37:17,0.0
-15080,-648,-284,-440,548,45,2024-01-24 10:37:17,0.0
-14256,-724,-160,-345,-22,385,2024-01-24 10:37:17,0.0
-13316,-748,120,-203,-213,444,2024-01-24 10:37:17,0.0
-13128,-752,64,3,173,458,2024-01-24 10:37:17,0.0
-13720,-888,-8,138,330,422,2024-01-24 10:37:17,0.0
-13884,-516,-212,259,35,422,2024-01-24 10:37:17,0.0
-13488,-328,-280,355,-144,330,2024-01-24 10:37:17,0.0
-13276,-248,-260,410,40,177,2024-01-24 10:37:17,0.0
-13152,-208,-396,407,158,39,2024-01-24 10:37:17,0.0
-12956,-308,-252,431,219,-174,2024-01-24 10:37:17,0.0
-12824,-520,-108,484,61,-385,2024-01-24 10:37:17,0.0
-12412,-344,-352,595,288,-714,2024-01-24 10:37:17,0.0
-12576,-328,-760,567,1211,-850,2024-01-24 10:37:17,0.0
-14088,-732,-652,390,1345,-808,2024-01-24 10:37:17,0.0
-14052,-512,-664,335,451,-818,2024-01-24 10:37:17,0.0
-13132,-412,-484,300,-166,-1056,2024-01-24 10:37:17,0.0
-12932,1280,-1124,348,1057,-959,2024-01-24 10:37:17,0.0
-14780,-176,-1608,-92,2317,-668,2024-01-24 10:37:17,0.0
-16016,-948,-992,-292,1227,-38,2024-01-24 10:37:17,0.0
-14944,-992,-176,-368,-185,120,2024-01-24 10:37:17,0.0
-13748,-832,-472,-266,-426,102,2024-01-24 10:37:17,0.0
-13116,-180,-1192,-310,36,268,2024-01-24 10:37:17,0.0
-12648,68,-1252,-321,317,388,2024-01-24 10:37:17,0.0
-12668,164,-1016,-325,638,407,2024-01-24 10:37:17,0.0
-13428,-372,-820,-182,889,515,2024-01-24 10:37:17,0.0
-13820,-528,-648,-48,671,451,2024-01-24 10:37:17,0.0
-14052,-792,-544,97,294,514,2024-01-24 10:37:17,0.0
-13988,-792,-400,242,108,722,2024-01-24 10:37:17,0.0
-13872,-888,-524,409,177,837,2024-01-24 10:37:17,0.0
-13864,-936,-896,622,269,942,2024-01-24 10:37:17,0.0
-13468,-748,-968,790,628,1069,2024-01-24 10:37:17,0.0
-13344,-328,-1144,1086,1001,1054,2024-01-24 10:37:17,0.0
-13468,-236,-1116,1339,1132,835,2024-01-24 10:37:17,0.0
-13616,-112,-1172,1476,1091,587,2024-01-24 10:37:17,0.0
-13580,-52,-1252,1521,1161,298,2024-01-24 10:37:17,0.0
-13640,-200,-1336,1442,1147,-18,2024-01-24 10:37:17,0.0
-13444,-64,-1272,1360,1092,-390,2024-01-24 10:37:17,0.0
-13168,0,-1252,1084,1065,-702,2024-01-24 10:37:17,0.0
-13420,84,-1232,832,960,-826,2024-01-24 10:37:17,0.0
-13596,116,-1076,540,680,-889,2024-01-24 10:37:17,0.0
-13476,124,-1216,240,450,-826,2024-01-24 10:37:18,0.0
-13480,-24,-1296,-13,328,-782,2024-01-24 10:37:18,0.0
-13384,-72,-1460,-219,324,-752,2024-01-24 10:37:18,0.0
-13540,-52,-1436,-367,448,-649,2024-01-24 10:37:18,0.0
-13636,-120,-1476,-559,644,-603,2024-01-24 10:37:18,0.0
-14184,-356,-1348,-696,775,-401,2024-01-24 10:37:18,0.0
-14528,-612,-1420,-705,588,-264,2024-01-24 10:37:18,0.0
-14532,-904,-1248,-563,180,-140,2024-01-24 10:37:18,0.0
-14400,-1120,-956,-195,-396,-87,2024-01-24 10:37:18,0.0
-14136,-1168,-716,202,-828,-105,2024-01-24 10:37:18,0.0
-13684,-1132,-608,507,-975,-139,2024-01-24 10:37:18,0.0
-13768,-880,-820,758,-1046,-143,2024-01-24 10:37:18,0.0
-13560,-712,-592,940,-1108,-147,2024-01-24 10:37:18,0.0
-13488,-492,-604,1122,-1062,-150,2024-01-24 10:37:18,0.0
-13440,-392,-612,1299,-982,-166,2024-01-24 10:37:18,0.0
-13600,-524,-620,1359,-827,-122,2024-01-24 10:37:18,0.0
-13564,-532,-748,1422,-722,-71,2024-01-24 10:37:18,0.0
-13960,-680,-900,1423,-718,57,2024-01-24 10:37:18,0.0
-13956,-512,-824,1300,-802,236,2024-01-24 10:37:18,0.0
-13508,-392,-576,1219,-911,224,2024-01-24 10:37:18,0.0
-13204,-368,-424,1077,-503,181,2024-01-24 10:37:18,0.0
-13304,-220,-432,948,120,167,2024-01-24 10:37:18,0.0
-13488,-196,-296,875,467,111,2024-01-24 10:37:18,0.0
-13632,-220,-336,868,691,-48,2024-01-24 10:37:18,0.0
-13772,-120,-632,772,676,-158,2024-01-24 10:37:18,0.0
-13744,-268,-532,675,523,-202,2024-01-24 10:37:18,0.0
-13772,4,-632,535,421,-234,2024-01-24 10:37:18,0.0
-13944,216,-740,400,480,-182,2024-01-24 10:37:18,0.0
-13940,196,-836,124,352,-208,2024-01-24 10:37:18,0.0
-14324,688,-1120,-224,203,-210,2024-01-24 10:37:18,0.0
-14392,960,-1376,-527,45,-160,2024-01-24 10:37:18,0.0
-14064,1068,-1656,-909,-216,-244,2024-01-24 10:37:18,0.0
-13844,1080,-1692,-1237,-334,-279,2024-01-24 10:37:18,0.0
-13784,1160,-1752,-1650,-271,-221,2024-01-24 10:37:18,0.0
-13792,1088,-1896,-1973,-610,-10,2024-01-24 10:37:18,0.0
-13044,524,-1200,-2012,-268,334,2024-01-24 10:37:18,0.0
-12712,368,-1060,-2064,86,89,2024-01-24 10:37:18,0.0
-12152,-412,-448,-1828,488,-148,2024-01-24 10:37:18,0.0
-11992,-880,432,-1792,1192,-204,2024-01-24 10:37:18,0.0
-12740,-716,1160,-1543,2467,-81,2024-01-24 10:37:18,0.0
-13872,-140,456,-1486,2632,-84,2024-01-24 10:37:18,0.0
-15048,-520,-264,-1254,1466,-279,2024-01-24 10:37:18,0.0
-15008,-1028,-504,-1061,149,-400,2024-01-24 10:37:18,0.0
-14412,-1196,-668,-898,-471,-467,2024-01-24 10:37:18,0.0
-13928,-1004,-328,-523,-454,-633,2024-01-24 10:37:18,0.0
-13688,-432,-716,-169,-493,-788,2024-01-24 10:37:18,0.0
-13136,148,-764,-8,-94,-1002,2024-01-24 10:37:18,0.0
-13076,172,-1748,-101,796,-1258,2024-01-24 10:37:18,
-14304,-48,-2368,-386,1216,-1318,2024-01-24 10:37:18,0.0
-15216,472,-3540,-781,1132,-1086,2024-01-24 10:37:18,0.0
-15072,192,-3044,-1205,624,-805,2024-01-24 10:37:18,0.0
-14820,284,-1324,-1507,-417,-667,2024-01-24 10:37:18,0.0
-14212,848,728,-1833,-2064,-592,2024-01-24 10:37:18,0.0
-12332,408,1736,-1726,-2679,-484,2024-01-24 10:37:18,0.0
-12348,-84,1304,-1396,-2319,-668,2024-01-24 10:37:18,0.0
-13060,-676,2052,-1442,-3176,-918,2024-01-24 10:37:18,0.0
-12796,-1252,2044,-1055,-2785,-985,2024-01-24 10:37:18,0.0
-13052,-836,1416,-845,-1660,-1049,2024-01-24 10:37:18,0.0
-13968,-544,956,-927,-739,-718,2024-01-24 10:37:18,0.0
-14064,-236,476,-1157,-453,-482,2024-01-24 10:37:18,0.0
-13976,-448,508,-1280,-420,-408,2024-01-24 10:37:19,0.0
-13904,-640,384,-1069,-377,-309,2024-01-24 10:37:19,0.0
-13888,-924,412,-698,-431,-248,2024-01-24 10:37:19,0.0
-13748,-636,-360,-526,-256,-196,2024-01-24 10:37:19,0.0
-13220,-868,-88,-531,-156,-167,2024-01-24 10:37:19,0.0
-13072,-904,120,-508,-74,-194,2024-01-24 10:37:19,0.0
-13508,-664,-128,-659,18,-113,2024-01-24 10:37:19,0.0
-13524,-736,64,-703,-109,-93,2024-01-24 10:37:19,0.0
-13420,-716,368,-535,-101,-92,2024-01-24 10:37:19,0.0
-13492,-864,360,-280,116,-99,2024-01-24 10:37:19,0.0
-13948,-476,124,-44,505,58,2024-01-24 10:37:19,0.0
-13508,-528,-116,39,722,-84,2024-01-24 10:37:19,0.0
-13580,-1072,124,300,844,-329,2024-01-24 10:37:19,0.0
-13844,-916,-176,598,343,-481,2024-01-24 10:37:19,0.0
-14008,-840,-456,655,-1013,-607,2024-01-24 10:37:19,0.0
-13688,-992,-520,683,-2338,-592,2024-01-24 10:37:19,0.0
-13196,-1424,412,1115,-2251,-601,2024-01-24 10:37:19,0.0
-12660,-1920,832,1533,-1194,-743,2024-01-24 10:37:19,0.0
-12648,-3252,1188,1663,196,-733,2024-01-24 10:37:19,0.0
-13164,-3516,432,2331,3207,-384,2024-01-24 10:37:19,0.0
-15816,-1604,1272,2152,5052,27,2024-01-24 10:37:19,0.0
-14660,-800,1864,1845,4628,35,2024-01-24 10:37:19,0.0
-12748,-708,716,1854,3515,-1186,2024-01-24 10:37:19,0.0
-13024,-1848,1732,1570,2697,-2094,2024-01-24 10:37:19,0.0
-12464,-2900,2488,2141,3226,-2621,2024-01-24 10:37:19,0.0
-13332,-3276,1760,2602,4258,-2912,2024-01-24 10:37:19,0.0
-13876,-3312,1952,2733,4384,-2729,2024-01-24 10:37:19,0.0
-13760,-3300,2348,2958,4168,-2476,2024-01-24 10:37:19,0.0
-13896,-2880,2400,3343,4122,-2177,2024-01-24 10:37:19,0.0
-13992,-2652,2012,3654,3998,-2147,2024-01-24 10:37:19,0.0
-14308,-2388,1408,3441,3429,-2398,2024-01-24 10:37:19,0.0
-14420,-2408,1152,3081,2828,-2657,2024-01-24 10:37:19,0.0
-14304,-1764,1180,2728,2368,-2829,2024-01-24 10:37:19,0.0
-13608,-1440,1596,2310,1833,-3722,2024-01-24 10:37:19,0.0
-13136,-1352,1756,1703,704,-4520,2024-01-24 10:37:19,0.0
-12252,-840,1440,654,791,-4727,2024-01-24 10:37:19,0.0
-12224,-780,1284,-140,857,-4618,2024-01-24 10:37:19,0.0
-12368,-728,912,-1261,390,-4243,2024-01-24 10:37:19,0.0
-12684,-1172,1588,-2270,-25,-3637,2024-01-24 10:37:19,0.0
-12824,-1224,2244,-3121,-388,-2825,2024-01-24 10:37:19,0.0
-12648,-1988,2788,-3614,-65,-1943,2024-01-24 10:37:19,0.0
-11848,-3416,2876,-3912,341,-1616,2024-01-24 10:37:19,0.0
-11420,-4532,3156,-4117,785,-1342,2024-01-24 10:37:19,0.0
-11076,-4964,3020,-4422,1958,-1505,2024-01-24 10:37:19,0.0
-11556,-4716,3172,-4761,2596,-1942,2024-01-24 10:37:19,0.0
-13140,-4520,3276,-5292,2802,-2313,2024-01-24 10:37:19,0.0
-15500,-3984,4476,-5683,2692,-2504,2024-01-24 10:37:19,0.0
-19340,-4240,4904,-5760,416,-1947,2024-01-24 10:37:19,0.0
-20108,-5532,4868,-5638,-4668,-466,2024-01-24 10:37:19,0.0
-14896,-9684,-1308,-4112,-3373,-366,2024-01-24 10:37:19,0.0
-18540,-12048,-3044,-3309,137,-2020,2024-01-24 10:37:19,0.0
-21916,-7060,4368,-1322,-1899,-5961,2024-01-24 10:37:19,0.0
-22892,-5476,-1976,2244,-2113,-6373,2024-01-24 10:37:19,0.0
-20532,-7840,-5556,3649,-4783,-2437,2024-01-24 10:37:19,0.0
-14444,-8032,-5128,1593,-6584,871,2024-01-24 10:37:19,0.0
-11472,-7228,-5272,1112,-4586,3186,2024-01-24 10:37:19,0.0
-12928,-7432,-4288,904,-1703,2399,2024-01-24 10:37:19,0.0
-19272,-540,-604,934,-2755,2168,2024-01-24 10:37:19,0.0
-20020,504,-2760,2884,-844,3726,2024-01-24 10:37:19,0.0
-21196,2248,-6288,1898,2289,3739,2024-01-24 10:37:20,0.0
-21868,1948,-2536,271,121,5127,2024-01-24 10:37:20,0.0
-19252,628,-472,183,-3804,7240,2024-01-24 10:37:20,0.0
-14812,-72,-1896,546,-5641,8686,2024-01-24 10:37:20,0.0
-10972,-752,-2580,297,-4580,9090,2024-01-24 10:37:20,0.0
-8916,-1260,-1168,-174,-2759,9075,2024-01-24 10:37:20,0.0
-8856,-1296,508,-208,-2013,8746,2024-01-24 10:37:20,0.0
-8116,-1552,1336,290,-3103,8147,2024-01-24 10:37:20,0.0
-6508,-1396,1704,1087,-5524,7066,2024-01-24 10:37:20,0.0
-4832,-304,984,1498,-6568,5840,2024-01-24 10:37:20,0.0
-3332,-272,1472,1589,-4291,4741,2024-01-24 10:37:20,0.0
-3792,-500,2168,1598,-2257,3694,2024-01-24 10:37:20,0.0
-4156,496,2184,1771,-1487,2026,2024-01-24 10:37:20,0.0
-4960,1196,2796,2034,-1276,-190,2024-01-24 10:37:20,0.0
-6904,728,4264,2614,-1089,-1191,2024-01-24 10:37:20,0.0
-9392,492,4796,2926,-1685,-1557,2024-01-24 10:37:20,0.0
-13900,1540,4240,3183,-3723,-2104,2024-01-24 10:37:20,0.0
-16704,2800,1340,3386,-6449,-2048,2024-01-24 10:37:20,0.0
-15776,1088,624,4013,-8156,-1974,2024-01-24 10:37:20,0.0
-14960,-1288,4032,5559,-5371,-912,2024-01-24 10:37:20,0.0
-15760,-4336,5828,7270,-1523,427,2024-01-24 10:37:20,0.0
-16160,-3952,4576,7491,235,1156,2024-01-24 10:37:20,0.0
-15292,-492,4952,7551,2043,1384,2024-01-24 10:37:20,0.0
-17556,2824,7968,7883,2751,601,2024-01-24 10:37:20,0.0
-21068,5676,8844,7532,1754,649,2024-01-24 10:37:20,0.0
-18884,10184,1372,5629,2757,1686,2024-01-24 10:37:20,0.0
-20988,8964,-324,3515,6859,3287,2024-01-24 10:37:20,0.0
-25424,8956,-3188,-1262,4221,3801,2024-01-24 10:37:20,0.0
-21972,13388,-6004,-5688,3072,7533,2024-01-24 10:37:20,
-16336,6828,-5056,-7323,-578,6842,2024-01-24 10:37:20,0.0
-11200,-2512,-3908,-7522,-2144,4551,2024-01-24 10:37:20,0.0
-8236,-4208,-1140,-5168,-1254,2297,2024-01-24 10:37:20,0.0
-11364,-1888,344,-4393,552,866,2024-01-24 10:37:20,0.0
-15352,-2176,536,-3640,1471,-253,2024-01-24 10:37:20,0.0
-18636,-2408,-2120,-3066,1386,-2337,2024-01-24 10:37:20,0.0
-21100,-2440,-2664,-3868,1491,-4311,2024-01-24 10:37:20,0.0
-20800,-4064,548,-3963,-1050,-5111,2024-01-24 10:37:20,0.0
-16028,-4296,1064,-3537,-5562,-5833,2024-01-24 10:37:20,0.0
-9864,-1604,-572,-3710,-6318,-5977,2024-01-24 10:37:20,0.0
-5348,616,172,-3792,-4012,-6575,2024-01-24 10:37:20,0.0
-3200,1308,580,-3627,-1188,-7866,2024-01-24 10:37:20,0.0
-5032,412,1956,-3655,-502,-8147,2024-01-24 10:37:20,0.0
-8104,-644,2152,-4120,9,-6917,2024-01-24 10:37:20,0.0
-10360,-1424,2168,-4904,1296,-4515,2024-01-24 10:37:20,0.0
-9564,-736,2956,-5402,1445,-2928,2024-01-24 10:37:20,0.0
-9244,-1036,3632,-5139,589,-2296,2024-01-24 10:37:20,0.0
-8916,-2228,3336,-4843,-724,-1190,2024-01-24 10:37:20,0.0
-7956,-2804,3504,-4735,-726,101,2024-01-24 10:37:20,0.0
-8424,-3464,3876,-4907,617,1237,2024-01-24 10:37:20,0.0
-9940,-3460,4188,-4988,1654,2418,2024-01-24 10:37:20,0.0
-11540,-2896,3532,-4521,1630,3176,2024-01-24 10:37:20,0.0
-12556,-2788,2880,-4238,899,2731,2024-01-24 10:37:20,0.0
-12080,-2292,1356,-4022,1928,2152,2024-01-24 10:37:20,0.0
-11920,-1364,1268,-4890,4586,282,2024-01-24 10:37:20,0.0
-13876,-484,4120,-6106,6446,-2375,2024-01-24 10:37:20,0.0
-15692,148,5884,-6253,7422,-4253,2024-01-24 10:37:20,0.0
-18692,-1044,6836,-6076,6791,-4339,2024-01-24 10:37:20,0.0
-16668,-5076,4944,-5619,6746,-3488,2024-01-24 10:37:20,0.0
-17144,-13924,-304,-4648,13047,-5113,2024-01-24 10:37:20,0.0
-24420,-13700,2652,-500,11691,-6901,2024-01-24 10:37:20,0.0
-23516,-10228,216,4403,6669,-13007,2024-01-24 10:37:21,0.0
-28844,-7308,912,8648,-243,-13906,2024-01-24 10:37:21,0.0
-19528,-80,-11816,7019,-5253,-5234,2024-01-24 10:37:21,0.0
-8820,-4160,-12412,2758,-4208,-2492,2024-01-24 10:37:21,0.0
-13880,-224,-5936,1542,-2464,-1421,2024-01-24 10:37:21,0.0
-20188,3700,-2632,1152,-581,300,2024-01-24 10:37:21,0.0
-23456,3868,-3156,2123,843,2227,2024-01-24 10:37:21,0.0
-23880,3076,-8016,1385,1405,3211,2024-01-24 10:37:21,0.0
-21556,2640,-1632,-1626,-4621,4183,2024-01-24 10:37:21,0.0
-17924,-88,1472,-1289,-9401,5334,2024-01-24 10:37:21,0.0
-13024,-2248,-1208,-191,-9309,6179,2024-01-24 10:37:21,0.0
-8688,-3664,-2520,201,-5749,6599,2024-01-24 10:37:21,0.0
-8224,-4140,-492,849,-2406,7871,2024-01-24 10:37:21,0.0
-7488,-4196,2304,1843,-3439,9056,2024-01-24 10:37:21,0.0
-6804,-2904,3620,2849,-5356,8604,2024-01-24 10:37:21,0.0
-5032,-184,2360,3339,-6683,6847,2024-01-24 10:37:21,0.0
-3400,788,2528,3778,-5830,5142,2024-01-24 10:37:21,0.0
-2008,324,2492,4488,-3310,3813,2024-01-24 10:37:21,0.0
-1500,300,3340,4596,-763,2136,2024-01-24 10:37:21,0.0
-2756,-8,4780,4943,1212,525,2024-01-24 10:37:21,0.0
-5772,544,5168,5579,2379,-944,2024-01-24 10:37:21,0.0
-9680,1348,3540,5864,2454,-1518,2024-01-24 10:37:21,0.0
-11952,1072,2464,5424,1443,-1967,2024-01-24 10:37:21,0.0
-13976,116,4072,5842,289,-2327,2024-01-24 10:37:21,0.0
-13264,-952,1596,6411,1947,-2014,2024-01-24 10:37:21,0.0
-14836,-796,2064,6124,3974,-1455,2024-01-24 10:37:21,0.0
-20124,192,4064,5417,5691,-258,2024-01-24 10:37:21,0.0
-23248,2140,5188,4813,6030,1381,2024-01-24 10:37:21,0.0
-21592,2984,7548,4455,3611,2095,2024-01-24 10:37:21,0.0
-19528,3320,8924,4524,878,1969,2024-01-24 10:37:21,0.0
-17176,9836,2208,3770,3446,2502,2024-01-24 10:37:21,0.0
-23212,6612,-3076,1793,8269,4646,2024-01-24 10:37:21,0.0
-29448,4908,-4788,-3098,277,6599,2024-01-24 10:37:21,0.0
-20684,9480,-9084,-5455,-3151,9159,2024-01-24 10:37:21,0.0
-12608,3068,-7684,-6315,-5320,7432,2024-01-24 10:37:21,0.0
-7700,-2476,-5348,-4946,-3687,5115,2024-01-24 10:37:21,0.0
-9744,-3412,-2744,-2956,-918,3564,2024-01-24 10:37:21,0.0
-13944,-4696,1520,-1876,1150,1665,2024-01-24 10:37:21,0.0
-16696,-5400,1824,-741,578,-1261,2024-01-24 10:37:21,0.0
-19328,-3388,-3000,-743,-467,-5293,2024-01-24 10:37:21,0.0
-21820,-2336,-2212,-923,-1275,-6317,2024-01-24 10:37:21,0.0
-18600,-212,-192,-1541,-3658,-5838,2024-01-24 10:37:21,0.0
-14632,1168,-32,-2744,-5013,-5551,2024-01-24 10:37:21,0.0
-9492,1532,-952,-3159,-4421,-5421,2024-01-24 10:37:21,0.0
-5840,880,-1180,-3403,-2469,-5884,2024-01-24 10:37:21,0.0
-4864,56,-160,-3892,-1316,-6405,2024-01-24 10:37:21,0.0
-5220,-1356,740,-4140,-232,-6349,2024-01-24 10:37:21,0.0
-6764,-2300,1376,-4238,459,-5206,2024-01-24 10:37:21,0.0
-6884,-2380,916,-4648,1726,-3678,2024-01-24 10:37:21,0.0
-6240,-1444,1340,-5010,3522,-2473,2024-01-24 10:37:21,0.0
-7048,-344,1536,-5474,5047,-1801,2024-01-24 10:37:21,0.0
-8956,-212,2216,-5708,5083,-528,2024-01-24 10:37:21,0.0
-10140,-1028,2732,-5997,4241,535,2024-01-24 10:37:21,0.0
-11624,-1124,3232,-6617,3063,2125,2024-01-24 10:37:21,0.0
-12916,-1632,4512,-6914,1684,3406,2024-01-24 10:37:21,0.0
-13828,-2264,5112,-6336,339,3906,2024-01-24 10:37:21,0.0
-14272,-2908,3884,-6094,-794,3362,2024-01-24 10:37:21,0.0
-13112,-3584,1400,-6053,525,1926,2024-01-24 10:37:21,0.0
-12684,-3536,1812,-5533,3043,152,2024-01-24 10:37:22,0.0
-14324,-2536,3820,-5250,4634,-1573,2024-01-24 10:37:22,0.0
-16304,-1940,6176,-4503,5002,-3143,2024-01-24 10:37:22,0.0
-18412,-2220,7492,-3350,4033,-3606,2024-01-24 10:37:22,0.0
-18944,-3048,8332,-2853,3015,-2967,2024-01-24 10:37:22,0.0
-12852,-10904,360,-2464,8105,-3027,2024-01-24 10:37:22,0.0
-21940,-10084,2464,-1509,10268,-4968,2024-01-24 10:37:22,0.0
-22800,-7460,256,1783,5742,-8110,2024-01-24 10:37:22,0.0
-22900,-8820,-2304,4305,3596,-12891,2024-01-24 10:37:22,0.0
-9752,-4116,-1692,-165,-4445,6385,2024-01-24 10:37:22,0.0
-8088,-3848,384,1076,-3812,8150,2024-01-24 10:37:22,
-6872,-3660,2628,2346,-3463,9009,2024-01-24 10:37:22,0.0
-5276,-3756,2320,3905,-2932,8385,2024-01-24 10:37:22,0.0
-5276,-2492,1756,4710,-4175,6037,2024-01-24 10:37:22,0.0
-4204,-964,1000,5150,-3073,4187,2024-01-24 10:37:22,0.0
-3632,-236,1492,5613,-1699,2575,2024-01-24 10:37:22,0.0
-3240,880,2408,5936,-206,1256,2024-01-24 10:37:22,0.0
-4224,1512,4080,6361,659,70,2024-01-24 10:37:22,0.0
-6936,1924,4336,6893,1092,-1253,2024-01-24 10:37:22,0.0
-10560,1532,3132,6680,-209,-1739,2024-01-24 10:37:22,0.0
-13432,1216,2312,6465,-2022,-2209,2024-01-24 10:37:22,0.0
-13508,780,2068,6664,-3346,-2560,2024-01-24 10:37:22,0.0
-10928,-236,-288,5727,-2230,-2862,2024-01-24 10:37:22,0.0
-12948,124,1856,4756,1230,-2412,2024-01-24 10:37:22,0.0
-21324,828,5088,4146,5475,-502,2024-01-24 10:37:22,0.0
-23752,3256,4540,3221,6414,1474,2024-01-24 10:37:22,0.0
-19740,3792,6292,2222,2731,2116,2024-01-24 10:37:22,0.0
-17396,4596,6188,2224,1585,1968,2024-01-24 10:37:22,0.0
-21624,7256,-40,1795,6061,4133,2024-01-24 10:37:22,0.0
-29144,3836,-2176,-1332,3307,5750,2024-01-24 10:37:22,0.0
-29568,6620,-7208,-4008,837,9272,2024-01-24 10:37:22,0.0
-19948,7356,-8252,-6917,-3099,10809,2024-01-24 10:37:22,0.0
-14696,2892,-4096,-6868,-4759,9367,2024-01-24 10:37:22,0.0
-8724,-1320,-3680,-5250,-5587,7293,2024-01-24 10:37:22,0.0
-5268,-5316,-1652,-2350,-3728,3412,2024-01-24 10:37:22,0.0
-9972,-5368,1672,-510,769,245,2024-01-24 10:37:22,0.0
-15208,-7008,2796,1621,1903,-2115,2024-01-24 10:37:22,0.0
-20408,-4840,-3556,1908,1546,-5195,2024-01-24 10:37:22,0.0
-22688,-500,-3592,598,1431,-5333,2024-01-24 10:37:22,0.0
-19320,848,-220,32,-600,-4897,2024-01-24 10:37:22,0.0
-14080,1744,740,-947,-3375,-5202,2024-01-24 10:37:22,0.0
-8900,2496,-388,-1542,-2858,-5646,2024-01-24 10:37:22,0.0
-5824,1956,-352,-1933,-988,-6817,2024-01-24 10:37:22,0.0
-5392,684,572,-2054,160,-7729,2024-01-24 10:37:22,0.0
-7776,-708,1236,-2403,726,-7511,2024-01-24 10:37:22,0.0
-9496,-1600,1068,-3218,885,-6133,2024-01-24 10:37:22,0.0
-9328,-2724,1280,-3840,1068,-4438,2024-01-24 10:37:22,0.0
-7984,-2580,1824,-4058,874,-3581,2024-01-24 10:37:22,0.0
-7624,-2268,2580,-4174,1059,-2679,2024-01-24 10:37:22,0.0
-8108,-1420,2632,-4331,1359,-1250,2024-01-24 10:37:22,0.0
-8480,-1560,3068,-4540,1380,97,2024-01-24 10:37:22,0.0
-9668,-1636,3808,-4716,1115,1955,2024-01-24 10:37:23,0.0
-11136,-920,4384,-4678,367,3618,2024-01-24 10:37:23,0.0
-12044,-1296,4356,-4216,-726,4511,2024-01-24 10:37:23,0.0
-12744,-2928,3244,-3496,-2080,4204,2024-01-24 10:37:23,0.0
-12344,-4352,1440,-2591,-1464,2844,2024-01-24 10:37:23,0.0
-13036,-3460,2028,-1829,1530,1002,2024-01-24 10:37:23,0.0
-16604,-464,5676,-2260,4264,-531,2024-01-24 10:37:23,0.0
-16044,-436,6532,-2001,5926,-3726,2024-01-24 10:37:23,0.0
-17040,-2576,6756,-1495,5672,-5251,2024-01-24 10:37:23,0.0
-16536,-3172,7028,-1265,4437,-3835,2024-01-24 10:37:23,0.0
-10848,-9824,352,-1228,10204,-3877,2024-01-24 10:37:23,0.0
-24020,-6176,4624,532,8427,-7460,2024-01-24 10:37:23,0.0
-24460,-5320,-3764,1088,3923,-11074,2024-01-24 10:37:23,0.0
-24656,-8392,-1120,4986,1864,-11792,2024-01-24 10:37:23,0.0
-21096,-5504,-7088,9105,-1031,-11020,2024-01-24 10:37:23,0.0
-16644,-1528,-10700,6865,-3461,-9268,2024-01-24 10:37:23,0.0
-11780,-540,-9000,3685,-5081,-4530,2024-01-24 10:37:23,0.0
-13100,-232,-5968,670,-681,-383,2024-01-24 10:37:23,0.0
-18872,1836,-4540,-2178,1598,2387,2024-01-24 10:37:23,0.0
-23156,4940,-2976,-3813,-1188,4145,2024-01-24 10:37:23,0.0
-20856,2472,-3972,-2704,-2803,3900,2024-01-24 10:37:23,0.0
-18920,-164,-2860,-2900,-4365,2675,2024-01-24 10:37:23,0.0
-17772,-3032,1312,-2399,-7433,2744,2024-01-24 10:37:23,0.0
-14952,-4396,744,-1079,-8697,3795,2024-01-24 10:37:23,0.0
-10928,-4432,-1892,407,-5366,5063,2024-01-24 10:37:23,0.0
-10160,-4052,364,1906,-4013,6542,2024-01-24 10:37:23,0.0
-9020,-3344,2308,3346,-3658,7509,2024-01-24 10:37:23,0.0
-8812,-2436,2604,4708,-3545,7371,2024-01-24 10:37:23,0.0
-8236,-1712,2032,5510,-4294,6275,2024-01-24 10:37:23,0.0
-6844,-1432,1376,6068,-4490,4420,2024-01-24 10:37:23,0.0
-5088,-172,716,5887,-2780,3371,2024-01-24 10:37:23,0.0
-3276,588,1292,5629,-923,2330,2024-01-24 10:37:23,0.0
-3080,1868,1872,5433,756,1090,2024-01-24 10:37:23,0.0
-4956,2932,3440,5116,1961,-656,2024-01-24 10:37:23,0.0
-7312,2960,4376,5053,2299,-1751,2024-01-24 10:37:23,0.0
-10020,2188,4236,4676,1570,-2626,2024-01-24 10:37:23,0.0
-13144,1480,3224,3914,-629,-2865,2024-01-24 10:37:23,0.0
-13688,1528,1408,3387,-1688,-2614,2024-01-24 10:37:23,0.0
-12268,940,508,2672,-1271,-2336,2024-01-24 10:37:23,0.0
-12252,636,928,1590,1319,-1907,2024-01-24 10:37:23,0.0
-16372,-1152,4196,949,4329,-1517,2024-01-24 10:37:23,0.0
-22728,-1104,6376,864,4367,-202,2024-01-24 10:37:23,0.0
-20076,1588,5972,838,2971,1158,2024-01-24 10:37:23,0.0
-16728,2148,8328,970,1661,399,2024-01-24 10:37:23,0.0
-17624,6560,5380,1129,5247,1090,2024-01-24 10:37:23,0.0
-25852,3712,1808,-19,5926,3350,2024-01-24 10:37:23,0.0
-30128,3676,8,-2262,-2009,5480,2024-01-24 10:37:23,0.0
-23228,5600,-5756,-3797,-3282,8004,2024-01-24 10:37:23,0.0
-18104,3604,-4844,-5642,-3776,7883,2024-01-24 10:37:23,0.0
-13752,2028,-3448,-5758,-4582,7658,2024-01-24 10:37:23,0.0
-8496,-1248,-1032,-4330,-5470,6337,2024-01-24 10:37:23,0.0
-6100,-4768,-324,-1540,-3243,4179,2024-01-24 10:37:23,0.0
-9248,-5660,808,48,1466,1838,2024-01-24 10:37:23,0.0
-15040,-6092,952,1491,2749,110,2024-01-24 10:37:23,0.0
-19692,-3392,-2980,1151,1247,-1429,2024-01-24 10:37:23,0.0
-20700,692,-3388,-421,-634,-2078,2024-01-24 10:37:23,0.0
-16512,2400,-492,-1979,-2645,-2895,2024-01-24 10:37:23,0.0
-12152,2716,-452,-3254,-3817,-3849,2024-01-24 10:37:23,0.0
-9608,3436,-796,-4146,-3211,-4173,2024-01-24 10:37:23,0.0
-7260,2172,-460,-4855,-1166,-4765,2024-01-24 10:37:23,
-7668,536,660,-5439,-472,-5640,2024-01-24 10:37:23,0.0
-9276,-1004,996,-6095,775,-5503,2024-01-24 10:37:24,0.0
-10668,-1536,1216,-6804,2033,-4487,2024-01-24 10:37:24,0.0
-11284,-1760,1496,-7413,1977,-3231,2024-01-24 10:37:24,0.0
-10256,-1528,2344,-7551,1797,-2456,2024-01-24 10:37:24,0.0
-9636,-1112,2940,-7304,1694,-2183,2024-01-24 10:37:24,0.0
-9396,-1112,3080,-7026,1773,-1429,2024-01-24 10:37:24,0.0
-9188,-1048,3848,-6395,2598,-543,2024-01-24 10:37:24,0.0
-10436,-2928,3968,-5737,3635,454,2024-01-24 10:37:24,0.0
-12060,-2796,5092,-5002,3381,1995,2024-01-24 10:37:24,0.0
-12528,-2768,5540,-4388,2074,2928,2024-01-24 10:37:24,0.0
-12780,-2564,5596,-3557,929,3656,2024-01-24 10:37:24,0.0
-12232,-2344,5812,-3014,348,3935,2024-01-24 10:37:24,0.0
-12428,-2972,4468,-2217,366,3389,2024-01-24 10:37:24,0.0
-12868,-2532,1516,-1966,1056,2377,2024-01-24 10:37:24,0.0
-13076,-336,1344,-2414,1698,1077,2024-01-24 10:37:24,0.0
-12780,652,2140,-2147,2575,-83,2024-01-24 10:37:24,0.0
-13104,1396,2332,-2681,2684,-1968,2024-01-24 10:37:24,0.0
-13756,-2748,4,3459,526,6617,2024-01-24 10:37:24,0.0
-14324,-1768,128,4118,-1449,7067,2024-01-24 10:37:24,0.0
-12880,-1508,816,4344,-3127,6424,2024-01-24 10:37:24,0.0
-10896,-1204,1468,4494,-3627,5485,2024-01-24 10:37:24,0.0
-8676,-116,1944,4511,-3574,4694,2024-01-24 10:37:24,0.0
-6548,1204,2084,4381,-1396,2961,2024-01-24 10:37:24,0.0
-6520,2332,2552,4009,63,1731,2024-01-24 10:37:24,0.0
-7412,2812,3988,3546,1129,293,2024-01-24 10:37:24,0.0
-8856,2600,4800,3239,700,-1195,2024-01-24 10:37:24,0.0
-10604,1952,4764,2833,-830,-2212,2024-01-24 10:37:24,0.0
-11096,744,4512,2033,-3070,-2790,2024-01-24 10:37:24,0.0
-11488,652,4480,943,-3539,-3021,2024-01-24 10:37:24,0.0
-11148,988,3688,-154,-3375,-2642,2024-01-24 10:37:24,0.0
-9880,684,2424,-1280,-2557,-2692,2024-01-24 10:37:24,0.0
-11292,516,500,-2697,775,-2320,2024-01-24 10:37:24,0.0
-14356,144,2236,-3902,3393,-1320,2024-01-24 10:37:24,0.0
-15540,1344,3688,-3889,2972,-1077,2024-01-24 10:37:24,0.0
-15368,76,5428,-2454,2849,-1580,2024-01-24 10:37:24,0.0
-15644,-1720,7500,-19,1720,-2151,2024-01-24 10:37:24,0.0
-14012,-1408,4048,1910,3033,-1191,2024-01-24 10:37:24,0.0
-18424,-1824,340,2269,3258,924,2024-01-24 10:37:24,0.0
-21972,-1420,-904,650,-2032,3554,2024-01-24 10:37:24,0.0
-18364,2792,-2200,-589,-3060,6169,2024-01-24 10:37:25,0.0
-15868,4576,-1132,-1295,583,6205,2024-01-24 10:37:25,0.0
-17764,4980,-2624,-1022,4113,5473,2024-01-24 10:37:25,0.0
-18500,1700,-4460,-867,2453,4860,2024-01-24 10:37:25,0.0
-17128,-2760,-2836,-510,-410,4257,2024-01-24 10:37:25,0.0
-15288,-5336,-2480,-257,-1904,2533,2024-01-24 10:37:25,0.0
-13148,-5164,-3604,-9,-2406,359,2024-01-24 10:37:25,0.0
-12572,-3900,-3728,-42,-599,-736,2024-01-24 10:37:25,0.0
-12352,-620,-2048,-49,2181,-1003,2024-01-24 10:37:25,0.0
-13368,1384,-1408,-622,2844,-1428,2024-01-24 10:37:25,0.0
-14744,1240,-1888,-1874,1432,-1962,2024-01-24 10:37:25,0.0
-13608,732,-1536,-3129,-529,-3018,2024-01-24 10:37:25,0.0
-11932,-232,-1344,-3325,-1068,-3609,2024-01-24 10:37:25,0.0
-10876,-820,-1340,-3201,74,-4044,2024-01-24 10:37:25,0.0
-11216,-1492,-1100,-3087,960,-3938,2024-01-24 10:37:25,0.0
-12092,-2396,-804,-3375,2001,-3209,2024-01-24 10:37:25,0.0
-12268,-2484,-1024,-3709,3599,-2585,2024-01-24 10:37:25,0.0
-13024,-2068,-1072,-4228,5035,-2098,2024-01-24 10:37:25,0.0
-13388,-844,188,-4978,5478,-2022,2024-01-24 10:37:25,0.0
-13884,124,1192,-5516,4379,-2501,2024-01-24 10:37:25,0.0
-15528,1148,908,-6048,2427,-2396,2024-01-24 10:37:25,0.0
-15692,356,356,-6761,401,-1905,2024-01-24 10:37:25,0.0
-15496,-1444,716,-7235,-1673,-1425,2024-01-24 10:37:25,0.0
-15972,-2844,1192,-7537,-3170,-1085,2024-01-24 10:37:25,0.0
-16140,-2872,1328,-7617,-4353,-459,2024-01-24 10:37:25,0.0
-15152,-2172,1268,-7467,-5687,158,2024-01-24 10:37:25,0.0
-13140,-880,792,-7010,-6080,1147,2024-01-24 10:37:25,0.0
-10580,-908,-940,-6512,-3117,1617,2024-01-24 10:37:25,0.0
-10204,-1440,-1516,-5994,1137,1138,2024-01-24 10:37:25,0.0
-13032,-1328,88,-5073,3481,312,2024-01-24 10:37:25,0.0
-15380,-1980,672,-4891,2793,-874,2024-01-24 10:37:25,0.0
-16348,-744,-576,-4837,-1128,-830,2024-01-24 10:37:25,0.0
-13592,-300,-1744,-4943,-3420,-771,2024-01-24 10:37:25,0.0
-10436,36,-1444,-5153,-1118,-827,2024-01-24 10:37:25,0.0
-10144,240,-1820,-5252,2332,-737,2024-01-24 10:37:25,0.0
-11480,-300,-1440,-5432,3953,-744,2024-01-24 10:37:25,0.0
-13644,-652,-696,-5563,3658,-305,2024-01-24 10:37:25,0.0
-14560,-736,-160,-5479,2135,274,2024-01-24 10:37:25,0.0
-14868,-576,256,-5320,835,626,2024-01-24 10:37:25,0.0
-14884,-580,160,-5210,-271,803,2024-01-24 10:37:25,0.0
-14176,-136,-416,-5051,-879,739,2024-01-24 10:37:25,0.0
-13260,-356,-784,-5110,-234,542,2024-01-24 10:37:25,0.0
-13232,-332,-656,-5273,931,311,2024-01-24 10:37:25,0.0
-13924,-76,124,-5320,1075,293,2024-01-24 10:37:25,0.0
-14240,12,296,-5220,711,202,2024-01-24 10:37:25,0.0
-14416,-172,316,-4980,225,205,2024-01-24 10:37:25,0.0
-13944,-16,196,-4887,260,298,2024-01-24 10:37:25,0.0
-13632,252,-24,-4873,448,186,2024-01-24 10:37:25,0.0
-13924,12,-148,-5022,514,221,2024-01-24 10:37:25,0.0
-13832,-132,-12,-5184,436,280,2024-01-24 10:37:25,0.0
-13632,144,76,-5342,500,324,2024-01-24 10:37:25,0.0
-13432,136,264,-5494,785,218,2024-01-24 10:37:25,0.0
-13584,292,308,-5658,967,31,2024-01-24 10:37:25,0.0
-13576,424,244,-5848,955,-20,2024-01-24 10:37:25,0.0
-13416,304,420,-5927,1029,-8,2024-01-24 10:37:25,0.0
-13656,140,572,-5952,1357,23,2024-01-24 10:37:25,0.0
-13988,8,620,-5936,1498,24,2024-01-24 10:37:25,0.0
-14060,-320,596,-5836,1307,-78,2024-01-24 10:37:25,0.0
-13912,-484,800,-5652,1185,-137,2024-01-24 10:37:25,0.0
-13988,-468,1020,-5382,1099,-85,2024-01-24 10:37:25,
-13936,-228,716,-5206,1161,-118,2024-01-24 10:37:26,0.0
-14060,-56,660,-5125,1204,-87,2024-01-24 10:37:26,0.0
-14112,36,380,-5107,924,-105,2024-01-24 10:37:26,0.0
-14004,-248,392,-4997,624,-113,2024-01-24 10:37:26,0.0
-13676,-520,308,-4782,554,-37,2024-01-24 10:37:26,0.0
-13652,-660,348,-4609,586,10,2024-01-24 10:37:26,0.0
-13492,-696,524,-4406,805,-7,2024-01-24 10:37:26,0.0
-13784,-568,580,-4247,995,-33,2024-01-24 10:37:26,0.0
-14120,-644,640,-4097,811,-45,2024-01-24 10:37:26,0.0
-14172,-612,716,-4017,620,-18,2024-01-24 10:37:26,0.0
-13916,-668,564,-3842,557,-10,2024-01-24 10:37:26,0.0
-13792,-720,424,-3740,460,42,2024-01-24 10:37:26,0.0
-13888,-708,380,-3612,240,37,2024-01-24 10:37:26,0.0
-14136,-596,592,-3432,-183,90,2024-01-24 10:37:26,0.0
-13932,-300,844,-3263,-382,128,2024-01-24 10:37:26,0.0
-13620,-400,896,-3010,-187,182,2024-01-24 10:37:26,0.0
-13728,-432,848,-2671,129,208,2024-01-24 10:37:26,0.0
-13760,-588,632,-2365,210,187,2024-01-24 10:37:26,0.0
-13784,-804,504,-2045,227,139,2024-01-24 10:37:26,0.0
-13792,-992,608,-1735,210,98,2024-01-24 10:37:26,0.0
-13788,-960,452,-1385,226,32,2024-01-24 10:37:26,0.0
-13828,-908,756,-1099,212,-52,2024-01-24 10:37:26,0.0
-13776,-768,568,-734,238,-75,2024-01-24 10:37:26,0.0
-13604,-856,700,-316,302,-113,2024-01-24 10:37:26,0.0
-13536,-672,944,94,356,-191,2024-01-24 10:37:26,0.0
-13652,-896,760,497,479,-227,2024-01-24 10:37:26,0.0
-13960,-740,572,805,568,-214,2024-01-24 10:37:26,0.0
-14084,-636,672,1033,529,-136,2024-01-24 10:37:26,0.0
-13984,-276,476,1267,354,-75,2024-01-24 10:37:26,0.0
-13960,-196,564,1366,302,-25,2024-01-24 10:37:26,0.0
-13900,72,640,1426,290,-43,2024-01-24 10:37:26,0.0
-13732,-12,656,1569,172,-60,2024-01-24 10:37:26,0.0
-13680,-132,528,1744,112,-107,2024-01-24 10:37:26,0.0
-13756,-212,692,1879,51,-105,2024-01-24 10:37:26,0.0
-13768,-264,396,1983,37,-63,2024-01-24 10:37:26,0.0
-13696,-256,508,2058,240,-24,2024-01-24 10:37:26,0.0
-13880,-16,428,2073,436,41,2024-01-24 10:37:26,0.0
-13956,8,648,2076,405,24,2024-01-24 10:37:26,0.0
-14016,64,572,2109,198,13,2024-01-24 10:37:26,0.0
-13916,-52,568,2164,-8,10,2024-01-24 10:37:26,0.0
-13864,-112,432,2185,-18,-18,2024-01-24 10:37:26,0.0
-13820,-140,480,2182,4,-38,2024-01-24 10:37:26,0.0
-13768,-12,368,2130,2,-10,2024-01-24 10:37:26,0.0
-13800,36,244,2040,8,-40,2024-01-24 10:37:26,0.0
-13696,140,176,1935,72,-27,2024-01-24 10:37:26,0.0
-13728,272,100,1733,206,-79,2024-01-24 10:37:26,0.0
-13572,360,172,1512,228,-86,2024-01-24 10:37:26,0.0
-13724,136,300,1249,210,-150,2024-01-24 10:37:26,0.0
-13896,264,112,1044,95,-149,2024-01-24 10:37:26,0.0
-13852,328,-24,890,-38,-124,2024-01-24 10:37:26,0.0
-13588,452,-24,714,-41,-131,2024-01-24 10:37:26,0.0
-13644,280,276,547,58,-156,2024-01-24 10:37:26,0.0
-13724,252,284,381,86,-192,2024-01-24 10:37:26,0.0
-13960,120,204,261,135,-129,2024-01-24 10:37:26,0.0
-13900,28,496,155,153,-94,2024-01-24 10:37:26,0.0
-13708,-20,232,115,118,-94,2024-01-24 10:37:26,0.0
-13652,-16,220,103,177,-139,2024-01-24 10:37:26,0.0
-13596,36,192,103,273,-156,2024-01-24 10:37:26,0.0
-13604,108,384,104,358,-205,2024-01-24 10:37:26,0.0
-13796,40,532,72,367,-194,2024-01-24 10:37:27,0.0
-14044,24,388,47,346,-142,2024-01-24 10:37:27,0.0
-13980,44,336,-14,314,-111,2024-01-24 10:37:27,0.0
-13832,168,336,-14,265,-113,2024-01-24 10:37:27,0.0
-13576,-8,500,7,409,-148,2024-01-24 10:37:27,0.0
-13604,-60,456,46,438,-159,2024-01-24 10:37:27,0.0
-13692,-148,432,59,467,-170,2024-01-24 10:37:27,0.0
-13704,-24,580,95,510,-122,2024-01-24 10:37:27,0.0
-13880,32,408,108,574,-89,2024-01-24 10:37:27,0.0
-13896,60,472,141,607,-50,2024-01-24 10:37:27,0.0
-13772,-8,340,139,600,6,2024-01-24 10:37:27,0.0
-13804,68,428,223,588,3,2024-01-24 10:37:27,0.0
-13764,-60,464,231,567,-57,2024-01-24 10:37:27,0.0
-13628,116,336,204,531,-84,2024-01-24 10:37:27,0.0
-13804,68,292,212,535,-61,2024-01-24 10:37:27,0.0
-13972,92,300,140,539,-70,2024-01-24 10:37:27,0.0
-13872,144,520,79,502,-59,2024-01-24 10:37:27,0.0
-13684,184,164,4,543,-29,2024-01-24 10:37:27,0.0
-13744,72,248,-56,558,-60,2024-01-24 10:37:27,0.0
-13860,120,64,-66,499,-77,2024-01-24 10:37:27,0.0
-13828,64,212,-99,454,-99,2024-01-24 10:37:27,0.0
-13796,12,252,-85,360,-130,2024-01-24 10:37:27,0.0
-13832,4,308,-141,347,-121,2024-01-24 10:37:27,0.0
-13780,104,412,-202,344,-128,2024-01-24 10:37:27,0.0
-13784,-72,304,-194,419,-135,2024-01-24 10:37:27,0.0
-13752,20,324,-216,450,-160,2024-01-24 10:37:27,0.0
-13604,-112,232,-219,466,-156,2024-01-24 10:37:27,0.0
-13720,-44,104,-249,463,-150,2024-01-24 10:37:27,0.0
-13696,64,180,-312,436,-107,2024-01-24 10:37:27,0.0
-13728,84,64,-410,462,-114,2024-01-24 10:37:27,0.0
-13780,148,176,-476,449,-134,2024-01-24 10:37:27,0.0
-13876,-52,248,-540,318,-165,2024-01-24 10:37:27,0.0
-13812,-32,192,-543,280,-184,2024-01-24 10:37:27,0.0
-13664,-168,216,-594,362,-200,2024-01-24 10:37:27,0.0
-13696,-76,96,-567,506,-169,2024-01-24 10:37:27,0.0
-13768,-44,52,-565,508,-156,2024-01-24 10:37:27,0.0
-13804,-92,116,-581,486,-134,2024-01-24 10:37:27,0.0
-13816,-132,192,-618,389,-107,2024-01-24 10:37:27,0.0
-13776,-104,-12,-641,292,-140,2024-01-24 10:37:27,0.0
-13724,-148,200,-568,287,-149,2024-01-24 10:37:27,0.0
-13648,-172,-148,-524,397,-165,2024-01-24 10:37:27,
-13644,-132,12,-492,487,-104,2024-01-24 10:37:27,0.0
-13764,-96,-104,-420,511,-94,2024-01-24 10:37:27,0.0
-13708,-96,-144,-465,544,-48,2024-01-24 10:37:27,0.0
-13852,-20,-128,-473,566,-84,2024-01-24 10:37:27,0.0
-13768,8,-144,-389,524,-59,2024-01-24 10:37:27,0.0
-13748,168,-36,-356,459,-91,2024-01-24 10:37:27,0.0
-13608,-136,-100,-335,503,-92,2024-01-24 10:37:27,0.0
-13636,28,-172,-279,588,-95,2024-01-24 10:37:27,0.0
-13576,24,-328,-217,687,-112,2024-01-24 10:37:27,0.0
-13644,-28,-272,-165,803,-150,2024-01-24 10:37:27,0.0
-13796,-60,-264,-177,786,-133,2024-01-24 10:37:27,0.0
-13736,-24,-272,-134,689,-153,2024-01-24 10:37:27,0.0
-13692,12,-288,-184,576,-142,2024-01-24 10:37:27,0.0
-13584,68,-260,-197,504,-174,2024-01-24 10:37:27,0.0
-13596,-32,-208,-153,606,-155,2024-01-24 10:37:27,0.0
-13788,40,-252,-217,655,-84,2024-01-24 10:37:27,0.0
-13992,156,-184,-222,415,-22,2024-01-24 10:37:27,0.0
-13800,188,304,-230,320,52,2024-01-24 10:37:27,0.0
-13540,48,176,-130,389,28,2024-01-24 10:37:27,0.0
-13692,-192,148,-66,677,16,2024-01-24 10:37:28,0.0
-13684,-272,152,-85,837,49,2024-01-24 10:37:28,0.0
-13760,-152,100,-41,852,107,2024-01-24 10:37:28,0.0
-13616,-280,456,33,763,113,2024-01-24 10:37:28,0.0
-13704,-220,268,284,761,94,2024-01-24 10:37:28,0.0
-13996,-240,740,654,796,55,2024-01-24 10:37:28,0.0
-13904,-360,776,998,696,-54,2024-01-24 10:37:28,0.0
-13972,-700,868,1524,318,-155,2024-01-24 10:37:28,0.0
-13840,-860,960,2181,157,-154,2024-01-24 10:37:28,0.0
-13784,-1032,876,2927,106,-186,2024-01-24 10:37:28,0.0
-13648,-1240,680,3672,235,-145,2024-01-24 10:37:28,0.0
-13628,-1324,616,4472,422,-122,2024-01-24 10:37:28,0.0
-13656,-1204,544,5202,524,-184,2024-01-24 10:37:28,0.0
-13600,-1448,340,5825,614,-242,2024-01-24 10:37:28,0.0
-13444,-1540,228,6491,659,-262,2024-01-24 10:37:28,0.0
-13688,-1444,-12,7321,707,-314,2024-01-24 10:37:28,0.0
-13804,-1284,-468,8137,710,-158,2024-01-24 10:37:28,0.0
-13640,-1144,-736,8800,616,39,2024-01-24 10:37:28,0.0
-13332,-1224,-760,9265,633,177,2024-01-24 10:37:28,0.0
-12900,-1420,-1152,9665,1091,270,2024-01-24 10:37:28,0.0
-12704,-1692,-1544,10147,1576,175,2024-01-24 10:37:28,0.0
-12652,-1560,-1692,10665,1860,88,2024-01-24 10:37:28,0.0
-12500,-1612,-1764,11239,2080,123,2024-01-24 10:37:28,0.0
-12580,-1648,-1904,11632,2439,246,2024-01-24 10:37:28,0.0
-12908,-1620,-2024,11652,2707,444,2024-01-24 10:37:28,0.0
-13824,-2160,-1736,11370,2457,629,2024-01-24 10:37:28,0.0
-14360,-2576,-1240,11074,1842,672,2024-01-24 10:37:28,0.0
-14872,-2984,-672,11249,1198,458,2024-01-24 10:37:28,0.0
-14832,-2932,-180,11605,610,225,2024-01-24 10:37:28,0.0
-15020,-2424,112,11957,55,145,2024-01-24 10:37:28,0.0
-14940,-2380,372,12062,-951,276,2024-01-24 10:37:28,0.0
-14168,-2700,472,12201,-1785,775,2024-01-24 10:37:28,0.0
-13080,-3036,452,12575,-1747,1256,2024-01-24 10:37:28,0.0
-12764,-3212,316,12946,-1280,1467,2024-01-24 10:37:28,0.0
-12984,-3052,-356,13526,-630,1657,2024-01-24 10:37:28,0.0
-13368,-2396,-872,13860,-514,1736,2024-01-24 10:37:28,0.0
-13368,-1252,-1648,13776,-754,1723,2024-01-24 10:37:28,0.0
-12980,-660,-1968,13501,-580,1565,2024-01-24 10:37:28,0.0
-12672,-1480,-2248,13348,602,1034,2024-01-24 10:37:28,0.0
-14272,-1884,-3116,13735,1157,386,2024-01-24 10:37:28,0.0
-15752,-1980,-4108,14223,205,-52,2024-01-24 10:37:28,0.0
-15016,-1528,-4516,13892,-1373,317,2024-01-24 10:37:28,0.0
-13084,-904,-3000,13407,-1457,537,2024-01-24 10:37:28,0.0
-12440,-484,-2108,13350,-681,427,2024-01-24 10:37:28,0.0
-13364,88,-1024,13634,-363,470,2024-01-24 10:37:28,0.0
-13980,-116,-180,14212,-682,409,2024-01-24 10:37:28,0.0
-14544,-516,336,15181,93,634,2024-01-24 10:37:28,0.0
-15036,-228,504,16037,901,1002,2024-01-24 10:37:28,0.0
-16092,820,220,16465,960,1552,2024-01-24 10:37:28,0.0
-16280,1576,-212,16662,1049,2129,2024-01-24 10:37:28,0.0
-15732,1108,-556,16486,765,2786,2024-01-24 10:37:28,0.0
-15600,80,-228,16532,15,3185,2024-01-24 10:37:28,0.0
-15720,-824,-84,16939,-662,3455,2024-01-24 10:37:28,0.0
-14416,-976,-256,17541,-681,3449,2024-01-24 10:37:28,0.0
-13716,-816,188,18249,-507,3552,2024-01-24 10:37:28,0.0
-13120,-1012,604,19009,-258,3501,2024-01-24 10:37:28,0.0
-12844,-1168,280,19788,-195,3457,2024-01-24 10:37:28,0.0
-12448,-1112,-156,20432,-124,3449,2024-01-24 10:37:28,0.0
-11884,-1644,648,20987,-173,3195,2024-01-24 10:37:29,0.0
-11592,-2056,808,21617,-121,2610,2024-01-24 10:37:29,0.0
-11604,-2044,832,22180,-248,2028,2024-01-24 10:37:29,0.0
-11520,-2120,680,22640,-216,1580,2024-01-24 10:37:29,0.0
-12020,-2020,980,23042,-334,1167,2024-01-24 10:37:29,0.0
-11756,-1972,540,23370,-531,557,2024-01-24 10:37:29,0.0
-11168,-1416,-480,23739,-1008,-437,2024-01-24 10:37:29,0.0
-10980,-1868,-2780,23673,-196,-1568,2024-01-24 10:37:29,0.0
-13132,-1880,-4212,23258,3012,-1318,2024-01-24 10:37:29,0.0
-13980,468,-3888,22809,4456,-134,2024-01-24 10:37:29,0.0
-14444,3892,-4368,22429,5541,551,2024-01-24 10:37:29,0.0
-15916,6376,-7444,20673,6571,1823,2024-01-24 10:37:29,0.0
-16656,4716,-6132,19122,6057,2975,2024-01-24 10:37:29,0.0
-15220,-308,-3456,18358,3456,3124,2024-01-24 10:37:29,0.0
-12668,-3272,-2840,17753,3244,2411,2024-01-24 10:37:29,0.0
-12120,-4016,-2700,17913,5106,1628,2024-01-24 10:37:29,0.0
-13436,-4628,-2480,18840,7349,1034,2024-01-24 10:37:29,0.0
-12340,-7032,-2128,20374,8163,211,2024-01-24 10:37:29,0.0
-12480,-7476,-2212,21913,7761,239,2024-01-24 10:37:29,0.0
-12848,-6884,-1944,23083,8075,944,2024-01-24 10:37:29,0.0
-13320,-6556,-2140,24146,7734,2126,2024-01-24 10:37:29,0.0
-14052,-6028,-2736,24732,7214,3093,2024-01-24 10:37:29,0.0
-14236,-5672,-3768,24891,6095,3536,2024-01-24 10:37:29,
