acceleration_x,acceleration_y,acceleration_z,gyroscope_x,gyroscope_y,gyroscope_z,timestamp,label
-13600,-2316,-1156,1676,610,-524,2024-01-24 10:31:42,0.0
-13948,-2216,-1092,1722,592,-438,2024-01-24 10:31:42,0.0
-14028,-2216,-1128,1759,437,-319,2024-01-24 10:31:42,0.0
-14096,-2232,-1132,1679,152,-303,2024-01-24 10:31:42,0.0
-13764,-1996,-1064,1593,-177,-278,2024-01-24 10:31:42,0.0
-13420,-1952,-1120,1405,-6,-265,2024-01-24 10:31:42,0.0
-13492,-1668,-764,1343,197,-225,2024-01-24 10:31:42,0.0
-13232,-1276,-476,1309,331,-203,2024-01-24 10:31:42,0.0
-13324,-1132,-720,1305,340,-197,2024-01-24 10:31:42,0.0
-13456,-1156,-468,1212,294,-193,2024-01-24 10:31:42,0.0
-13668,-1524,-352,1126,228,-236,2024-01-24 10:31:42,0.0
-13884,-1244,-604,965,160,-244,2024-01-24 10:31:42,0.0
-13992,-1132,-672,835,164,-186,2024-01-24 10:31:42,0.0
-13912,-776,-572,607,137,-125,2024-01-24 10:31:42,0.0
-13756,-480,-560,382,222,-56,2024-01-24 10:31:42,0.0
-13680,-380,-504,136,395,-53,2024-01-24 10:31:42,0.0
-13492,-636,-348,-49,554,-67,2024-01-24 10:31:42,0.0
-13576,-1024,-236,-79,933,-93,2024-01-24 10:31:42,0.0
-13776,-1392,-328,117,958,-15,2024-01-24 10:31:42,0.0
-13720,-1700,-476,344,696,34,2024-01-24 10:31:42,0.0
-13488,-2004,-536,642,433,39,2024-01-24 10:31:42,0.0
-13252,-2380,-464,1015,337,14,2024-01-24 10:31:42,0.0
-13356,-2272,-700,1368,237,32,2024-01-24 10:31:42,0.0
-13296,-2004,-1108,1561,149,142,2024-01-24 10:31:42,0.0
-13468,-1604,-1576,1565,-90,151,2024-01-24 10:31:42,0.0
-13692,-1508,-1676,1521,-394,129,2024-01-24 10:31:42,0.0
-13672,-1552,-1728,1457,-663,-23,2024-01-24 10:31:42,0.0
-13884,-1540,-1120,1324,-570,-173,2024-01-24 10:31:42,0.0
-14104,-1716,-908,1084,-282,-283,2024-01-24 10:31:42,0.0
-14164,-1576,-1076,858,-327,-413,2024-01-24 10:31:42,0.0
-14132,-1420,-808,553,-604,-418,2024-01-24 10:31:42,0.0
-13580,-1188,-872,292,-775,-432,2024-01-24 10:31:42,0.0
-13324,-1268,-888,173,-696,-506,2024-01-24 10:31:42,0.0
-13104,-1248,-1280,-28,-403,-563,2024-01-24 10:31:42,0.0
-12980,-1464,-1364,-277,-215,-649,2024-01-24 10:31:42,0.0
-12908,-1424,-1496,-613,-5,-668,2024-01-24 10:31:42,0.0
-13208,-1456,-1900,-914,272,-630,2024-01-24 10:31:42,0.0
-13432,-836,-1948,-1425,82,-342,2024-01-24 10:31:42,0.0
-13272,-1040,-1868,-1470,-28,-191,2024-01-24 10:31:42,0.0
-13136,-1144,-2120,-1497,13,-190,2024-01-24 10:31:42,0.0
-13564,-1456,-2120,-1590,-121,-197,2024-01-24 10:31:42,0.0
-13524,-1232,-2356,-1499,-436,-112,2024-01-24 10:31:42,0.0
-12676,-1260,-2508,-1466,-669,-88,2024-01-24 10:31:42,0.0
-11712,-1552,-2800,-1545,-454,-338,2024-01-24 10:31:42,0.0
-11296,-1524,-1848,-1750,504,-842,2024-01-24 10:31:42,0.0
-11064,-1824,-580,-1873,1902,-1189,2024-01-24 10:31:42,0.0
-12544,-1020,540,-1958,3531,-1249,2024-01-24 10:31:42,0.0
-14444,1520,604,-2427,4412,-827,2024-01-24 10:31:42,0.0
-15932,2416,-112,-2812,3474,-204,2024-01-24 10:31:42,0.0
-16144,1824,100,-3024,2498,-2,2024-01-24 10:31:42,0.0
-15932,480,1196,-2634,1600,-162,2024-01-24 10:31:42,0.0
-15148,-372,1256,-2012,912,-260,2024-01-24 10:31:42,0.0
-14960,-352,1328,-1664,818,-333,2024-01-24 10:31:42,0.0
-15012,96,1328,-1273,1062,-278,2024-01-24 10:31:42,0.0
-14852,732,148,-1122,1031,-85,2024-01-24 10:31:42,0.0
-14716,1240,-668,-1243,462,72,2024-01-24 10:31:42,0.0
-13832,1284,-1048,-1233,-144,158,2024-01-24 10:31:42,0.0
-13360,900,-1140,-1049,-516,141,2024-01-24 10:31:42,0.0
-12656,568,-1828,-848,-551,109,2024-01-24 10:31:42,0.0
-12180,368,-3176,-732,-73,147,2024-01-24 10:31:42,0.0
-12980,68,-3492,-557,225,253,2024-01-24 10:31:42,0.0
-12460,-316,-3176,-458,759,371,2024-01-24 10:31:43,0.0
-12700,-600,-2344,-369,1042,391,2024-01-24 10:31:43,0.0
-13112,-1460,-1872,-283,641,402,2024-01-24 10:31:43,0.0
-13788,-1196,-1404,-430,-63,456,2024-01-24 10:31:43,0.0
-14140,-2240,-1412,-663,-541,543,2024-01-24 10:31:43,0.0
-14668,-3088,-908,-658,-358,272,2024-01-24 10:31:43,0.0
-14620,-3056,-488,-359,-389,122,2024-01-24 10:31:43,0.0
-13960,-3012,-12,0,-210,-217,2024-01-24 10:31:43,0.0
-13896,-3024,312,360,509,-733,2024-01-24 10:31:43,0.0
-13956,-2384,800,625,840,-953,2024-01-24 10:31:43,0.0
-14156,-1952,1684,1075,1195,-1101,2024-01-24 10:31:43,0.0
-14208,-1196,1544,1686,1386,-827,2024-01-24 10:31:43,0.0
-13476,-720,1100,2182,1444,-455,2024-01-24 10:31:43,0.0
-13112,-448,684,2226,1491,-448,2024-01-24 10:31:43,0.0
-13616,-576,424,2263,1418,-532,2024-01-24 10:31:43,0.0
-13656,-640,436,2221,1024,-499,2024-01-24 10:31:43,0.0
-13028,-392,44,2288,1108,-473,2024-01-24 10:31:43,0.0
-13096,728,-480,1736,1419,-313,2024-01-24 10:31:43,0.0
-13576,1556,-992,1011,1536,-109,2024-01-24 10:31:43,0.0
-13916,1560,-776,389,703,-160,2024-01-24 10:31:43,0.0
-14112,1796,-620,-62,-194,57,2024-01-24 10:31:43,0.0
-13948,1192,-360,-415,-486,439,2024-01-24 10:31:43,0.0
-13136,-348,-584,-445,-367,485,2024-01-24 10:31:43,0.0
-12176,-1528,-1292,-239,-39,283,2024-01-24 10:31:43,0.0
-11760,-2088,-1892,452,631,420,2024-01-24 10:31:43,0.0
-10548,-3068,-2100,1184,2061,437,2024-01-24 10:31:43,0.0
-10828,-3760,-1128,1127,2855,744,2024-01-24 10:31:43,0.0
-11840,-4004,-56,699,3874,958,2024-01-24 10:31:43,0.0
-13756,-3048,-1292,349,4474,1137,2024-01-24 10:31:43,0.0
-16952,-1120,-2044,23,3717,858,2024-01-24 10:31:43,0.0
-17892,-292,-1184,-452,1080,-114,2024-01-24 10:31:43,0.0
-16124,-760,16,-661,-516,-1317,2024-01-24 10:31:43,0.0
-14616,-1900,324,-681,-656,-2562,2024-01-24 10:31:43,0.0
-13684,-2328,88,-593,266,-2830,2024-01-24 10:31:43,0.0
-13320,-2528,-232,-478,998,-3014,2024-01-24 10:31:43,0.0
-12868,-2836,-320,-373,1217,-3189,2024-01-24 10:31:43,0.0
-12696,-2452,-436,-483,1188,-3474,2024-01-24 10:31:43,0.0
-12320,-1660,-820,-1054,1379,-3539,2024-01-24 10:31:43,0.0
-12212,-1148,-640,-1861,1393,-3865,2024-01-24 10:31:43,
-12520,-692,-24,-2558,1322,-4088,2024-01-24 10:31:43,0.0
-12424,-876,512,-3232,1379,-4125,2024-01-24 10:31:43,0.0
-12624,-1660,888,-3673,1390,-3856,2024-01-24 10:31:43,0.0
-12360,-2708,1380,-3725,1546,-3461,2024-01-24 10:31:43,0.0
-12552,-3740,1740,-3475,1348,-2863,2024-01-24 10:31:43,0.0
-12520,-4032,1764,-3225,1131,-2287,2024-01-24 10:31:43,0.0
-12444,-5084,1916,-2892,656,-1883,2024-01-24 10:31:43,0.0
-12396,-4860,2480,-2399,246,-1488,2024-01-24 10:31:43,0.0
-11768,-4664,2524,-2187,189,-1295,2024-01-24 10:31:43,0.0
-12108,-3712,3168,-2104,-222,-1370,2024-01-24 10:31:43,0.0
-12888,-3000,3608,-2663,-641,-1673,2024-01-24 10:31:43,0.0
-13344,-2016,3992,-3331,-237,-1883,2024-01-24 10:31:43,0.0
-13340,-2200,3184,-3906,746,-2804,2024-01-24 10:31:43,0.0
-12976,-2740,1496,-4366,1663,-3929,2024-01-24 10:31:43,0.0
-12032,-4432,-1008,-4336,3026,-5543,2024-01-24 10:31:43,0.0
-13992,-6288,-1836,-4562,5576,-7638,2024-01-24 10:31:43,0.0
-22588,-8284,6840,-3019,6114,-7341,2024-01-24 10:31:43,0.0
-26032,-11928,256,1179,6479,-4572,2024-01-24 10:31:43,0.0
-23448,-8820,-9956,582,1872,902,2024-01-24 10:31:43,0.0
-20296,-11504,-8832,251,-2011,3093,2024-01-24 10:31:43,0.0
-18636,-9072,-7344,914,-5073,2374,2024-01-24 10:31:44,0.0
-16896,-3832,-7488,1741,-6206,2451,2024-01-24 10:31:44,0.0
-16032,-2128,-5696,2259,-4512,2046,2024-01-24 10:31:44,0.0
-16976,144,-4084,2498,-4214,1838,2024-01-24 10:31:44,0.0
-18252,636,-3276,2245,-3540,2751,2024-01-24 10:31:44,0.0
-18568,2672,-4028,1197,-2418,5124,2024-01-24 10:31:44,0.0
-17108,3900,-3444,-267,-2265,7141,2024-01-24 10:31:44,0.0
-14812,3992,-2164,-875,-2814,7616,2024-01-24 10:31:44,0.0
-12668,2384,-2964,-1025,-3070,6953,2024-01-24 10:31:44,0.0
-11164,124,-2736,-1222,-3567,6567,2024-01-24 10:31:44,0.0
-10068,-2132,-1780,-747,-4254,6729,2024-01-24 10:31:44,0.0
-8788,-3600,-244,5,-6549,7361,2024-01-24 10:31:44,0.0
-6904,-3116,228,955,-8362,7395,2024-01-24 10:31:44,0.0
-3608,-2624,-224,1254,-8097,6521,2024-01-24 10:31:44,0.0
-2676,-1484,1548,1534,-6788,5513,2024-01-24 10:31:44,0.0
-2296,84,2476,2408,-3644,4028,2024-01-24 10:31:44,0.0
-1876,2000,3100,3559,-1144,2657,2024-01-24 10:31:44,0.0
-3804,2296,1640,4627,1342,1123,2024-01-24 10:31:44,0.0
-7016,1604,1488,5004,1948,678,2024-01-24 10:31:44,0.0
-9896,728,1516,4635,1150,154,2024-01-24 10:31:44,0.0
-14024,-176,2384,4900,-880,-884,2024-01-24 10:31:44,0.0
-14576,752,1104,5978,-1630,-831,2024-01-24 10:31:44,0.0
-18512,388,2000,7040,-827,105,2024-01-24 10:31:44,0.0
-19312,452,2576,7355,14,1393,2024-01-24 10:31:44,0.0
-19372,2720,2640,7010,713,2107,2024-01-24 10:31:44,0.0
-18144,3328,4424,6050,778,2403,2024-01-24 10:31:44,0.0
-16508,4200,5276,5851,928,1361,2024-01-24 10:31:44,0.0
-15692,6044,4248,5400,1757,371,2024-01-24 10:31:44,0.0
-17816,9160,-2928,4200,6383,1081,2024-01-24 10:31:44,0.0
-28652,7048,-4328,717,5332,2726,2024-01-24 10:31:44,0.0
-26148,9452,-10260,-3335,1215,5476,2024-01-24 10:31:44,0.0
-19500,3564,-8652,-5526,-2871,6477,2024-01-24 10:31:44,0.0
-11532,-1372,-6832,-4853,-6002,4212,2024-01-24 10:31:44,0.0
-9404,-1304,-6188,-3349,-3816,1665,2024-01-24 10:31:44,0.0
-11376,-852,-3308,-2449,-1314,1217,2024-01-24 10:31:44,0.0
-15424,-4652,368,-1031,-590,-1020,2024-01-24 10:31:44,0.0
-16816,-5732,-2432,-725,-1772,-3767,2024-01-24 10:31:44,0.0
-19040,-5628,-3648,-1631,-1436,-5360,2024-01-24 10:31:44,0.0
-19264,-4796,-1268,-1505,-936,-4983,2024-01-24 10:31:44,0.0
-15280,-2384,312,-1379,-2277,-4777,2024-01-24 10:31:44,0.0
-11216,-904,-312,-1400,-3843,-5787,2024-01-24 10:31:44,0.0
-8452,108,-1192,-1464,-4345,-6553,2024-01-24 10:31:44,0.0
-5724,1036,-1340,-2007,-3227,-7073,2024-01-24 10:31:44,0.0
-3456,748,-1072,-2589,-2290,-7583,2024-01-24 10:31:44,0.0
-5324,-52,-316,-3108,-941,-7454,2024-01-24 10:31:44,0.0
-8036,-2008,564,-3600,-437,-6070,2024-01-24 10:31:44,0.0
-8636,-2532,1716,-3732,149,-4694,2024-01-24 10:31:44,0.0
-8648,-2236,1984,-3989,-185,-3296,2024-01-24 10:31:44,0.0
-9228,-1664,1952,-4384,257,-1774,2024-01-24 10:31:44,0.0
-9668,-2064,1480,-4854,73,-218,2024-01-24 10:31:44,0.0
-9696,-2220,1604,-5447,-1032,734,2024-01-24 10:31:44,0.0
-10228,-1940,2192,-5510,-1725,1849,2024-01-24 10:31:44,0.0
-11728,-2304,3572,-4869,-2396,2233,2024-01-24 10:31:44,0.0
-12424,-3220,3088,-4547,-2939,2022,2024-01-24 10:31:44,0.0
-13672,-3480,2636,-4367,-2879,1775,2024-01-24 10:31:44,0.0
-13188,-2912,1180,-4441,-1465,1575,2024-01-24 10:31:44,0.0
-12616,-2552,2728,-4382,1525,232,2024-01-24 10:31:44,0.0
-14904,-2040,5016,-4513,4313,-1910,2024-01-24 10:31:44,0.0
-16848,-2332,6088,-4437,5921,-3224,2024-01-24 10:31:44,0.0
-16452,-4100,6632,-4040,5326,-2994,2024-01-24 10:31:44,0.0
-15524,-4648,6180,-3958,3707,-2372,2024-01-24 10:31:45,0.0
-11440,-13052,-5332,-3503,9699,-3995,2024-01-24 10:31:45,0.0
-28796,-11868,2716,59,6534,-6276,2024-01-24 10:31:45,0.0
-23752,-12272,-4288,4863,4161,-9202,2024-01-24 10:31:45,0.0
-25808,-8760,-5376,9226,-1885,-11506,2024-01-24 10:31:45,0.0
-21460,-996,-8232,9212,-5991,-7004,2024-01-24 10:31:45,0.0
-13128,-1836,-8204,6529,-5350,-3786,2024-01-24 10:31:45,0.0
-11928,-3388,-5256,5225,-2318,-1959,2024-01-24 10:31:45,0.0
-16632,-748,-3404,3968,-162,1118,2024-01-24 10:31:45,0.0
-20224,2040,-4356,2798,1144,4353,2024-01-24 10:31:45,0.0
-20540,4576,-4240,1668,838,6037,2024-01-24 10:31:45,0.0
-18356,4380,-2336,1338,364,4200,2024-01-24 10:31:45,0.0
-18168,1684,-184,1195,-3144,3000,2024-01-24 10:31:45,0.0
-15632,-1176,204,1472,-6450,3514,2024-01-24 10:31:45,0.0
-11648,-2740,-1540,1685,-6098,5260,2024-01-24 10:31:45,0.0
-7376,-2576,-2552,1510,-2991,6751,2024-01-24 10:31:45,0.0
-6028,-2924,-108,1709,-1649,7888,2024-01-24 10:31:45,0.0
-5224,-2892,292,2375,-2045,8024,2024-01-24 10:31:45,0.0
-4872,-2288,916,2681,-2889,7016,2024-01-24 10:31:45,0.0
-5472,-1396,1732,2992,-3118,5368,2024-01-24 10:31:45,
-5600,72,1452,3947,-1479,3510,2024-01-24 10:31:45,0.0
-5240,1240,1972,4353,-653,2385,2024-01-24 10:31:45,0.0
-4484,1876,2036,4637,317,1081,2024-01-24 10:31:45,0.0
-5584,2108,2592,4909,2482,-821,2024-01-24 10:31:45,0.0
-7684,1400,3396,5048,3046,-1681,2024-01-24 10:31:45,0.0
-10900,520,4132,4766,2043,-1922,2024-01-24 10:31:45,0.0
-13976,1336,4828,4370,370,-2113,2024-01-24 10:31:45,0.0
-16548,2204,4472,4647,-1634,-2038,2024-01-24 10:31:45,0.0
-15756,1080,1028,4659,-1384,-1612,2024-01-24 10:31:45,0.0
-14844,80,156,3833,1812,-745,2024-01-24 10:31:45,0.0
-17268,-1120,3820,3748,3022,28,2024-01-24 10:31:45,0.0
-19172,-2116,5708,4087,2180,149,2024-01-24 10:31:45,0.0
-18840,840,7012,4715,2021,188,2024-01-24 10:31:45,0.0
-16852,3748,6508,4751,1514,65,2024-01-24 10:31:45,0.0
-15260,9384,-744,3934,5040,548,2024-01-24 10:31:45,0.0
-23464,6376,-5264,1430,9202,2966,2024-01-24 10:31:45,0.0
-31364,5772,-6120,-2038,1677,4857,2024-01-24 10:31:45,0.0
-24832,10304,-14364,-5504,373,8795,2024-01-24 10:31:45,0.0
-17348,4996,-8612,-7585,-1945,9184,2024-01-24 10:31:45,0.0
-11140,-1000,-5488,-6792,-3569,6401,2024-01-24 10:31:45,0.0
-9980,-2780,-4388,-4876,-3230,4529,2024-01-24 10:31:45,0.0
-10328,-5240,-240,-2980,-1505,1691,2024-01-24 10:31:45,0.0
-14068,-7132,1740,-1323,-229,-1774,2024-01-24 10:31:45,0.0
-16256,-6840,-1524,-124,-39,-4355,2024-01-24 10:31:45,0.0
-19876,-5256,-2336,-157,1285,-5709,2024-01-24 10:31:45,0.0
-23088,-2360,2376,-500,908,-4927,2024-01-24 10:31:45,0.0
-16568,-68,-1284,-1250,-2362,-4581,2024-01-24 10:31:45,0.0
-11572,1144,-1156,-2065,-4142,-4816,2024-01-24 10:31:45,0.0
-6860,2012,-1708,-2956,-3430,-5877,2024-01-24 10:31:45,0.0
-4608,1900,-1796,-3757,-1377,-7097,2024-01-24 10:31:45,0.0
-4480,1076,-640,-4258,320,-8303,2024-01-24 10:31:45,0.0
-6344,40,324,-4868,334,-7877,2024-01-24 10:31:45,0.0
-7820,-1432,932,-5756,1606,-6513,2024-01-24 10:31:45,0.0
-8228,-2100,920,-6583,3133,-5105,2024-01-24 10:31:45,0.0
-8228,-2956,1560,-7010,3558,-3657,2024-01-24 10:31:45,0.0
-8792,-2636,1864,-7122,3726,-2441,2024-01-24 10:31:45,0.0
-10252,-2508,2796,-6938,2899,-986,2024-01-24 10:31:45,0.0
-11176,-3488,2424,-6973,1271,731,2024-01-24 10:31:45,0.0
-10736,-3324,2168,-7160,-401,2514,2024-01-24 10:31:45,0.0
-11780,-2584,3572,-6892,-991,3923,2024-01-24 10:31:45,0.0
-11396,-2528,3748,-5617,-642,4306,2024-01-24 10:31:45,0.0
-11832,-3236,3304,-4597,-67,3684,2024-01-24 10:31:46,0.0
-12948,-3460,740,-4195,1333,2529,2024-01-24 10:31:46,0.0
-14268,-2732,1664,-4353,3125,1004,2024-01-24 10:31:46,0.0
-15540,-1468,3628,-4724,4325,-1153,2024-01-24 10:31:46,0.0
-16736,-596,4308,-4778,5350,-4417,2024-01-24 10:31:46,0.0
-17684,-2424,4424,-4194,3933,-4917,2024-01-24 10:31:46,0.0
-16068,-2996,6916,-3990,2003,-3299,2024-01-24 10:31:46,0.0
-9876,-9728,344,-4253,6875,-3559,2024-01-24 10:31:46,0.0
-22232,-10204,-304,-4370,13165,-6431,2024-01-24 10:31:46,0.0
-25048,-9668,508,2024,3979,-8396,2024-01-24 10:31:46,0.0
-22924,-13860,-6332,5785,2236,-10204,2024-01-24 10:31:46,0.0
-20988,-5748,-9468,7742,-1165,-8226,2024-01-24 10:31:46,0.0
-18448,-32,-10556,6728,-3672,-4746,2024-01-24 10:31:46,0.0
-12504,-1088,-9960,4745,-4168,-1718,2024-01-24 10:31:46,0.0
-13132,-1852,-5288,2810,-3027,-376,2024-01-24 10:31:46,0.0
-20248,696,-4104,398,-603,3353,2024-01-24 10:31:46,0.0
-22296,3516,-5284,-1362,-90,6447,2024-01-24 10:31:46,0.0
-20008,5304,-4296,-1906,-439,6909,2024-01-24 10:31:46,0.0
-17300,3484,-1580,-1915,-2596,4534,2024-01-24 10:31:46,0.0
-16640,192,228,-1191,-6217,3562,2024-01-24 10:31:46,0.0
-14532,-2696,-1060,-380,-7595,4225,2024-01-24 10:31:46,0.0
-10136,-3272,-2656,240,-6068,5196,2024-01-24 10:31:46,0.0
-7352,-2968,-1648,700,-3084,6544,2024-01-24 10:31:46,0.0
-5496,-3516,944,1790,-2086,7442,2024-01-24 10:31:46,0.0
-4820,-3396,2660,3360,-2588,7039,2024-01-24 10:31:46,0.0
-5072,-2996,1208,4097,-1977,5782,2024-01-24 10:31:46,0.0
-5312,-1588,2168,4850,-816,4350,2024-01-24 10:31:46,0.0
-5708,-1100,2560,5755,-1115,2461,2024-01-24 10:31:46,0.0
-4460,1192,1432,6106,-699,359,2024-01-24 10:31:46,0.0
-5468,2272,2668,6061,-129,-539,2024-01-24 10:31:46,0.0
-6732,2092,4544,6114,-121,-1053,2024-01-24 10:31:46,0.0
-9264,1896,4912,6566,-432,-1790,2024-01-24 10:31:46,0.0
-11296,2252,2768,6708,-778,-2010,2024-01-24 10:31:46,0.0
-12752,2024,1624,6261,-1163,-1843,2024-01-24 10:31:46,0.0
-10204,988,-472,5648,-849,-2268,2024-01-24 10:31:46,0.0
-10492,-104,-1092,4390,1764,-2407,2024-01-24 10:31:46,0.0
-16612,-424,1604,3771,4883,-1554,2024-01-24 10:31:46,0.0
-23148,1788,3936,3206,6074,421,2024-01-24 10:31:46,0.0
-24888,2656,7324,3214,4710,2264,2024-01-24 10:31:46,0.0
-21100,1664,9376,4333,1081,2761,2024-01-24 10:31:46,0.0
-16420,2388,6372,5262,546,2237,2024-01-24 10:31:46,0.0
-15444,7232,-4220,4171,8789,2582,2024-01-24 10:31:46,0.0
-29672,3216,-6404,208,5497,4870,2024-01-24 10:31:46,0.0
-25016,9800,-10508,-3312,320,8487,2024-01-24 10:31:46,0.0
-18564,5388,-9724,-5016,-1637,9751,2024-01-24 10:31:46,0.0
-12544,-592,-7768,-4937,-2375,7447,2024-01-24 10:31:46,0.0
-11668,-3480,-5756,-3127,-2254,4969,2024-01-24 10:31:46,0.0
-11728,-4424,-2112,-1402,-2083,2930,2024-01-24 10:31:46,0.0
-14656,-6208,-264,-392,-1388,393,2024-01-24 10:31:46,0.0
-16672,-5132,-2668,163,-1533,-2795,2024-01-24 10:31:46,0.0
-20032,-3488,-3596,209,-885,-5090,2024-01-24 10:31:46,0.0
-18032,-1792,-4036,-179,-1705,-5227,2024-01-24 10:31:46,0.0
-14368,24,-1240,-1108,-4254,-4823,2024-01-24 10:31:46,0.0
-9824,632,-100,-1424,-4380,-4992,2024-01-24 10:31:46,0.0
-5568,1152,-836,-1725,-2580,-6046,2024-01-24 10:31:46,0.0
-4272,568,-64,-2194,56,-7620,2024-01-24 10:31:46,0.0
-6592,168,1256,-2540,1096,-8107,2024-01-24 10:31:46,0.0
-7544,-296,828,-3145,1010,-7315,2024-01-24 10:31:46,0.0
-8572,-880,868,-4174,1449,-5974,2024-01-24 10:31:46,
-8552,-988,1324,-5105,752,-4460,2024-01-24 10:31:46,0.0
-8280,-1200,1776,-5597,879,-3450,2024-01-24 10:31:46,0.0
-9156,-1756,2828,-5624,803,-1788,2024-01-24 10:31:47,0.0
-9244,-2540,1608,-5709,597,-113,2024-01-24 10:31:47,0.0
-9928,-2180,1652,-6386,542,1538,2024-01-24 10:31:47,0.0
-10896,-1748,3572,-7019,169,2850,2024-01-24 10:31:47,0.0
-12252,-1356,4744,-6589,-867,3488,2024-01-24 10:31:47,0.0
-12800,-2068,3688,-5681,-1679,3460,2024-01-24 10:31:47,0.0
-12488,-2940,1072,-5086,-874,2700,2024-01-24 10:31:47,0.0
-12980,-3608,1124,-4501,2485,905,2024-01-24 10:31:47,0.0
-16396,-3072,2996,-4173,4857,-1380,2024-01-24 10:31:47,0.0
-18648,-1580,3196,-4455,4853,-4993,2024-01-24 10:31:47,0.0
-19444,-2940,5256,-3791,3485,-6011,2024-01-24 10:31:47,0.0
-15468,-4896,5072,-3118,1927,-4590,2024-01-24 10:31:47,0.0
-11240,-14428,-1396,-3096,8860,-5664,2024-01-24 10:31:47,0.0
-24328,-8428,4956,475,5215,-7574,2024-01-24 10:31:47,0.0
-21072,-10152,-4948,3037,1611,-11893,2024-01-24 10:31:47,0.0
-22924,-8040,-3756,7766,81,-11896,2024-01-24 10:31:47,0.0
-21752,-3112,-7540,8429,-2610,-10384,2024-01-24 10:31:47,0.0
-17004,180,-9172,5628,-4487,-5571,2024-01-24 10:31:47,0.0
-10868,-1604,-8840,2584,-3049,-2527,2024-01-24 10:31:47,0.0
-15620,-484,-3272,645,-596,-333,2024-01-24 10:31:47,0.0
-21888,2136,-2880,-589,666,2407,2024-01-24 10:31:47,0.0
-23812,2624,-5456,-1716,1575,5424,2024-01-24 10:31:47,0.0
-22112,2132,-4828,-2260,561,5305,2024-01-24 10:31:47,0.0
-20280,304,464,-2150,-4967,4412,2024-01-24 10:31:47,0.0
-17092,-2128,564,-820,-7901,4784,2024-01-24 10:31:47,0.0
-12348,-2820,-1536,-173,-6782,5791,2024-01-24 10:31:47,0.0
-8744,-3028,-2032,36,-4022,6899,2024-01-24 10:31:47,0.0
-7108,-2204,-576,525,-2393,8188,2024-01-24 10:31:47,0.0
-5120,-2540,1220,1253,-2297,8013,2024-01-24 10:31:47,0.0
-4560,-2596,1268,1784,-2114,6725,2024-01-24 10:31:47,0.0
-5992,-2068,1324,2230,-3051,5752,2024-01-24 10:31:47,0.0
-4864,-748,764,2413,-2578,4598,2024-01-24 10:31:47,0.0
-4040,508,924,2772,-953,2862,2024-01-24 10:31:47,0.0
-4900,1132,2268,2896,-326,1491,2024-01-24 10:31:47,0.0
-5728,1184,3900,3285,-85,661,2024-01-24 10:31:47,0.0
-7076,852,5716,3925,-168,-412,2024-01-24 10:31:47,0.0
-9816,412,4940,4488,-407,-1407,2024-01-24 10:31:47,0.0
-13240,1224,2664,4610,-1214,-1852,2024-01-24 10:31:47,0.0
-13224,1216,1872,4824,-2665,-1983,2024-01-24 10:31:47,0.0
-10120,208,-532,4646,-1713,-2447,2024-01-24 10:31:47,0.0
-11324,332,1080,3644,2824,-2288,2024-01-24 10:31:47,0.0
-19200,-404,4276,3559,5886,-1203,2024-01-24 10:31:47,0.0
-23164,1360,4908,3895,6268,652,2024-01-24 10:31:47,0.0
-20808,1152,6520,4271,3770,1305,2024-01-24 10:31:47,0.0
-18072,1920,8096,5090,915,1135,2024-01-24 10:31:47,0.0
-16508,7716,344,4544,5161,1745,2024-01-24 10:31:47,0.0
-24636,5500,-4576,1589,7187,3950,2024-01-24 10:31:47,0.0
-27988,7100,-6592,-1883,1927,6722,2024-01-24 10:31:47,0.0
-19772,8188,-9232,-4368,-246,9777,2024-01-24 10:31:47,0.0
-15572,2616,-5204,-4998,-1324,8131,2024-01-24 10:31:47,0.0
-10472,-2616,-5456,-3489,-2851,5405,2024-01-24 10:31:47,0.0
-11372,-4256,-1728,-1550,-3066,3398,2024-01-24 10:31:47,0.0
-11676,-6744,64,-469,-1394,1209,2024-01-24 10:31:47,0.0
-15672,-7080,1128,1332,-158,-1783,2024-01-24 10:31:47,0.0
-19616,-4812,-1808,1631,811,-3955,2024-01-24 10:31:47,0.0
-22088,-1152,-2152,1053,32,-4637,2024-01-24 10:31:47,0.0
-19156,72,-936,237,-2986,-4119,2024-01-24 10:31:47,0.0
-13576,1288,-76,-441,-6113,-3569,2024-01-24 10:31:47,0.0
-8044,2040,-800,-1364,-4891,-4287,2024-01-24 10:31:47,0.0
-6052,1804,-100,-1813,-2692,-5451,2024-01-24 10:31:47,0.0
-6700,376,1144,-2115,-553,-6780,2024-01-24 10:31:48,0.0
-8032,-900,748,-2764,-56,-6649,2024-01-24 10:31:48,0.0
-9000,-1488,1160,-3524,-58,-5538,2024-01-24 10:31:48,0.0
-8400,-2044,1280,-4018,132,-4072,2024-01-24 10:31:48,0.0
-7640,-1616,1676,-4573,694,-2647,2024-01-24 10:31:48,0.0
-8112,-1080,3304,-4812,932,-1430,2024-01-24 10:31:48,0.0
-7636,-2392,2920,-4892,1047,2,2024-01-24 10:31:48,0.0
-8136,-3500,2676,-5351,1468,1227,2024-01-24 10:31:48,0.0
-9084,-2904,2924,-5844,1662,2367,2024-01-24 10:31:48,0.0
-10944,-1860,3640,-6111,1574,3203,2024-01-24 10:31:48,0.0
-11620,-1680,3868,-5566,1244,3717,2024-01-24 10:31:48,0.0
-13248,-1776,3324,-4781,159,3390,2024-01-24 10:31:48,0.0
-13080,-2708,1200,-4208,903,2235,2024-01-24 10:31:48,0.0
-13956,-2128,2020,-3636,2938,844,2024-01-24 10:31:48,0.0
-15944,-1972,4524,-3272,4770,-786,2024-01-24 10:31:48,0.0
-16136,-1336,5532,-3506,5546,-4247,2024-01-24 10:31:48,0.0
-18364,-1868,4908,-3843,4885,-5788,2024-01-24 10:31:48,0.0
-16448,-2216,3712,-3933,5974,-4271,2024-01-24 10:31:48,0.0
-15552,-7908,-636,-4797,11684,-6006,2024-01-24 10:31:48,0.0
-28584,-6040,1944,-3051,3748,-8482,2024-01-24 10:31:48,0.0
-24068,-9756,-3424,-559,482,-8606,2024-01-24 10:31:48,0.0
-19048,-10528,-2616,4461,-223,-9375,2024-01-24 10:31:48,0.0
-18532,-7316,-6644,6317,-2763,-10031,2024-01-24 10:31:48,0.0
-14368,-2540,-9500,4666,-4584,-6002,2024-01-24 10:31:48,0.0
-9888,-1492,-8696,1557,-2717,-2768,2024-01-24 10:31:48,0.0
-13860,16,-3720,-798,327,-616,2024-01-24 10:31:48,0.0
-20304,3736,-2832,-1784,899,1842,2024-01-24 10:31:48,0.0
-22736,4204,-3068,-1286,-327,3913,2024-01-24 10:31:48,0.0
-19260,1412,-4312,-1065,-1187,3586,2024-01-24 10:31:48,0.0
-17364,-692,-1264,-1356,-4147,2789,2024-01-24 10:31:48,0.0
-17360,-3204,1704,-468,-6029,3304,2024-01-24 10:31:48,0.0
-13140,-4056,-760,1509,-4198,4534,2024-01-24 10:31:48,0.0
-11856,-4264,-468,2113,-2718,5900,2024-01-24 10:31:48,0.0
-10684,-3432,1336,3283,-2669,7576,2024-01-24 10:31:48,0.0
-7380,-2612,1216,4764,-2012,7478,2024-01-24 10:31:48,0.0
-7264,-2208,1736,5794,-2698,6510,2024-01-24 10:31:48,0.0
-6772,-1496,768,6477,-1847,5081,2024-01-24 10:31:48,0.0
-5652,-192,644,6792,-884,4068,2024-01-24 10:31:48,
-4732,808,1580,6531,170,2402,2024-01-24 10:31:48,0.0
-4876,1488,1656,6228,1949,789,2024-01-24 10:31:48,0.0
-6916,2156,2844,5876,2714,-579,2024-01-24 10:31:48,0.0
-8604,2256,4220,5860,1881,-1432,2024-01-24 10:31:48,0.0
-10228,1676,3980,5814,691,-2312,2024-01-24 10:31:48,0.0
-13128,1508,2656,4948,-1055,-2735,2024-01-24 10:31:48,0.0
-14280,1976,3068,4101,-3574,-2482,2024-01-24 10:31:48,0.0
-11832,2620,-804,3157,-2978,-2373,2024-01-24 10:31:48,0.0
-9212,1612,-3324,824,848,-2585,2024-01-24 10:31:48,0.0
-17260,-1220,-20,-759,4628,-1991,2024-01-24 10:31:48,0.0
-24536,1832,6688,-345,5243,1016,2024-01-24 10:31:48,0.0
-21176,576,7812,1242,3732,2398,2024-01-24 10:31:48,0.0
-19120,-648,9052,2162,1488,1554,2024-01-24 10:31:48,0.0
-16892,532,4324,3443,3904,1576,2024-01-24 10:31:48,0.0
-22516,144,-232,2877,5411,2918,2024-01-24 10:31:48,0.0
-25544,3844,-3848,-177,-935,4683,2024-01-24 10:31:48,0.0
-21160,8660,-5852,-1534,-1818,6508,2024-01-24 10:31:48,0.0
-17976,7540,-7916,-3595,-1945,7727,2024-01-24 10:31:48,0.0
-12720,2192,-6096,-4429,-2332,6897,2024-01-24 10:31:48,0.0
-8852,-2368,-4424,-3533,-1200,5241,2024-01-24 10:31:48,0.0
-10004,-5212,-960,-1701,470,4289,2024-01-24 10:31:49,0.0
-12756,-5492,-68,-989,1768,2756,2024-01-24 10:31:49,0.0
-16368,-5248,-1084,130,666,126,2024-01-24 10:31:49,0.0
-19344,-3840,-3692,98,-506,-1726,2024-01-24 10:31:49,0.0
-18716,-2684,-1876,-461,-1864,-2460,2024-01-24 10:31:49,0.0
-14960,-1508,-44,-839,-3977,-3045,2024-01-24 10:31:49,0.0
-10448,172,-920,-1063,-4160,-3620,2024-01-24 10:31:49,0.0
-7432,2552,-2072,-1893,-2028,-4164,2024-01-24 10:31:49,0.0
-5676,3408,-976,-3153,366,-5223,2024-01-24 10:31:49,0.0
-6940,2472,300,-3859,1120,-6188,2024-01-24 10:31:49,0.0
-8504,1344,752,-4784,1186,-6195,2024-01-24 10:31:49,0.0
-9232,-284,112,-5796,2360,-5072,2024-01-24 10:31:49,0.0
-10588,-1192,956,-6599,3214,-3926,2024-01-24 10:31:49,0.0
-11084,-3052,2152,-6463,3342,-3169,2024-01-24 10:31:49,0.0
-11164,-3608,1776,-6058,1794,-2148,2024-01-24 10:31:49,0.0
-10760,-2872,1972,-5913,806,-1072,2024-01-24 10:31:49,0.0
-11128,-2232,3220,-5784,620,511,2024-01-24 10:31:49,0.0
-12500,-1804,4880,-5710,-173,1859,2024-01-24 10:31:49,0.0
-13860,-1712,4852,-5347,-1762,2756,2024-01-24 10:31:49,0.0
-13752,-1912,3936,-4815,-3255,3084,2024-01-24 10:31:49,0.0
-13172,-1892,3228,-4641,-3650,2394,2024-01-24 10:31:49,0.0
-12352,-1768,2356,-4375,-1828,1692,2024-01-24 10:31:49,0.0
-11492,-1428,820,-4357,1184,613,2024-01-24 10:31:49,0.0
-12416,-1020,908,-5111,2841,-1043,2024-01-24 10:31:49,0.0
-13364,-816,2608,-5627,2904,-2955,2024-01-24 10:31:49,0.0
-14852,-1424,4152,-5777,2409,-3856,2024-01-24 10:31:49,0.0
-16340,-2636,5408,-5942,1740,-3086,2024-01-24 10:31:49,0.0
-12492,-7556,-72,-5887,5254,-2488,2024-01-24 10:31:49,0.0
-16120,-6828,-2156,-4989,9951,-4298,2024-01-24 10:31:49,0.0
-20556,-8204,-2704,-2148,5968,-7386,2024-01-24 10:31:49,0.0
-20692,-9072,-3628,1520,4692,-11173,2024-01-24 10:31:49,0.0
-20284,-4128,-7388,3272,1780,-10855,2024-01-24 10:31:49,0.0
-17316,124,-9960,1908,379,-9623,2024-01-24 10:31:49,0.0
-17260,4632,-7744,-836,-2197,-8231,2024-01-24 10:31:49,0.0
-19748,9604,-5476,-2657,-3777,-4083,2024-01-24 10:31:49,0.0
-17864,7676,-9504,-4477,-2937,1366,2024-01-24 10:31:49,0.0
-16356,4012,-10320,-7041,-557,3323,2024-01-24 10:31:49,0.0
-17656,-4,-7164,-7684,-285,3321,2024-01-24 10:31:49,0.0
-18320,-2492,-3848,-6437,-1103,3333,2024-01-24 10:31:49,0.0
-16632,-3832,-1808,-4460,-2407,3506,2024-01-24 10:31:49,0.0
-12740,-3848,-3080,-2340,-3616,3027,2024-01-24 10:31:49,0.0
-11296,-3368,-3288,-960,-1517,3384,2024-01-24 10:31:49,0.0
-10448,-2596,-3068,-633,848,3692,2024-01-24 10:31:49,0.0
-9888,-1364,-1620,-552,2936,4118,2024-01-24 10:31:49,0.0
-9444,544,-1352,-352,3614,3807,2024-01-24 10:31:49,0.0
-9764,1612,-1424,-123,3450,3232,2024-01-24 10:31:49,0.0
-10728,2520,-1764,113,3026,3024,2024-01-24 10:31:49,0.0
-10808,2712,-1760,35,2233,3246,2024-01-24 10:31:49,0.0
-10760,2140,-1396,240,2137,3294,2024-01-24 10:31:49,0.0
-10764,1708,-684,567,2430,3118,2024-01-24 10:31:49,0.0
-11828,516,-376,876,2279,2579,2024-01-24 10:31:49,0.0
-11876,40,-1088,856,790,1680,2024-01-24 10:31:49,0.0
-12448,368,-1244,484,122,902,2024-01-24 10:31:49,0.0
-12880,488,-624,269,760,222,2024-01-24 10:31:49,0.0
-13756,1172,-44,130,79,-305,2024-01-24 10:31:49,0.0
-13224,1124,-88,196,-893,-885,2024-01-24 10:31:49,0.0
-13680,768,-188,333,-1279,-1366,2024-01-24 10:31:49,0.0
-12584,420,-800,257,-1739,-1992,2024-01-24 10:31:49,0.0
-12512,12,-1816,441,-837,-2671,2024-01-24 10:31:49,0.0
-13552,-284,-792,1042,80,-2868,2024-01-24 10:31:49,0.0
-14984,-260,-904,1246,-394,-2053,2024-01-24 10:31:50,0.0
-14300,-1096,-1052,1143,-1261,-1153,2024-01-24 10:31:50,0.0
-12816,-1340,-2700,652,-434,-202,2024-01-24 10:31:50,0.0
-12356,-864,-4144,61,883,284,2024-01-24 10:31:50,0.0
-14376,744,-3344,-418,1465,5,2024-01-24 10:31:50,0.0
-16008,636,-2112,-306,406,324,2024-01-24 10:31:50,0.0
-15988,52,-2916,-305,-766,950,2024-01-24 10:31:50,0.0
-14888,-1028,-3204,-479,-1673,1071,2024-01-24 10:31:50,0.0
-12944,-1892,-2856,-523,-1663,811,2024-01-24 10:31:50,0.0
-11992,-2612,-2584,-344,-1163,669,2024-01-24 10:31:50,0.0
-12352,-2092,-2888,-497,-287,483,2024-01-24 10:31:50,0.0
-13544,-1044,-2824,-715,320,1061,2024-01-24 10:31:50,0.0
-13492,-480,-2872,-1091,34,1486,2024-01-24 10:31:50,0.0
-13176,-448,-2944,-1474,-268,1601,2024-01-24 10:31:50,0.0
-12564,-632,-3080,-1882,-118,1395,2024-01-24 10:31:50,0.0
-12464,-272,-3176,-2390,84,1011,2024-01-24 10:31:50,0.0
-12168,-76,-3336,-2968,390,848,2024-01-24 10:31:50,0.0
-11632,380,-3512,-3725,1095,517,2024-01-24 10:31:50,0.0
-12176,552,-3548,-4580,1892,424,2024-01-24 10:31:50,0.0
-12596,968,-3596,-5695,2593,459,2024-01-24 10:31:50,
-13136,1180,-3348,-6780,2643,378,2024-01-24 10:31:50,0.0
-13388,1744,-2740,-7903,2258,-54,2024-01-24 10:31:50,0.0
-13444,1500,-2988,-8665,1976,-397,2024-01-24 10:31:50,0.0
-13608,476,-2748,-9405,1495,-686,2024-01-24 10:31:50,0.0
-13704,-400,-2116,-9824,1311,-1011,2024-01-24 10:31:50,0.0
-14176,-936,-1660,-9905,1060,-1029,2024-01-24 10:31:50,0.0
-14176,-1340,-1352,-9808,626,-1001,2024-01-24 10:31:50,0.0
-13828,-1260,-1392,-9567,571,-1012,2024-01-24 10:31:50,0.0
-13712,-988,-1316,-9187,886,-1017,2024-01-24 10:31:50,0.0
-13504,-708,-1544,-8937,1279,-952,2024-01-24 10:31:50,0.0
-13640,-592,-1364,-8647,1557,-913,2024-01-24 10:31:50,0.0
-13820,-484,-1220,-8335,1759,-787,2024-01-24 10:31:50,0.0
-14472,-580,-1044,-7947,1733,-585,2024-01-24 10:31:50,0.0
-14584,-536,-940,-7497,1078,-382,2024-01-24 10:31:50,0.0
-14732,-716,-904,-7188,370,-226,2024-01-24 10:31:50,0.0
-14336,-700,-1044,-6905,-222,-101,2024-01-24 10:31:50,0.0
-13552,-460,-1096,-6668,-461,-196,2024-01-24 10:31:50,0.0
-13188,-536,-1184,-6443,-357,-376,2024-01-24 10:31:50,0.0
-13512,-232,-932,-6208,-138,-348,2024-01-24 10:31:50,0.0
-13700,8,-852,-6077,-209,-341,2024-01-24 10:31:50,0.0
-13612,248,-1016,-6052,-136,-271,2024-01-24 10:31:50,0.0
-13488,468,-1224,-6038,-29,-253,2024-01-24 10:31:50,0.0
-13116,376,-1300,-5957,291,-311,2024-01-24 10:31:50,0.0
-13112,428,-1140,-5907,614,-362,2024-01-24 10:31:50,0.0
-13284,512,-1008,-5918,888,-370,2024-01-24 10:31:50,0.0
-13584,700,-844,-5902,890,-419,2024-01-24 10:31:50,0.0
-13852,860,-752,-5826,694,-456,2024-01-24 10:31:50,0.0
-13620,668,-804,-5690,603,-538,2024-01-24 10:31:50,0.0
-13608,464,-540,-5467,715,-632,2024-01-24 10:31:50,0.0
-13404,248,-848,-5240,991,-586,2024-01-24 10:31:50,0.0
-13688,156,-804,-5059,1105,-550,2024-01-24 10:31:50,0.0
-14104,568,-1196,-4938,893,-466,2024-01-24 10:31:50,0.0
-14184,916,-1172,-4877,563,-368,2024-01-24 10:31:50,0.0
-14084,948,-1080,-4763,278,-416,2024-01-24 10:31:50,0.0
-13860,852,-1060,-4604,0,-523,2024-01-24 10:31:50,0.0
-13488,784,-1176,-4519,-137,-636,2024-01-24 10:31:50,0.0
-13464,592,-916,-4361,50,-672,2024-01-24 10:31:50,0.0
-13256,640,-892,-4214,347,-774,2024-01-24 10:31:50,0.0
-13456,604,-660,-4087,533,-752,2024-01-24 10:31:50,0.0
-13608,876,-968,-4017,588,-758,2024-01-24 10:31:51,0.0
-13732,860,-924,-3951,430,-751,2024-01-24 10:31:51,0.0
-13724,784,-852,-3913,281,-739,2024-01-24 10:31:51,0.0
-13604,940,-796,-3852,223,-691,2024-01-24 10:31:51,0.0
-13500,840,-808,-3740,264,-584,2024-01-24 10:31:51,0.0
-13548,800,-944,-3720,414,-499,2024-01-24 10:31:51,0.0
-13792,732,-900,-3723,295,-477,2024-01-24 10:31:51,0.0
-13860,756,-792,-3623,111,-400,2024-01-24 10:31:51,0.0
-13692,628,-748,-3441,-27,-362,2024-01-24 10:31:51,0.0
-13524,424,-424,-3219,88,-328,2024-01-24 10:31:51,0.0
-13644,448,-544,-2967,214,-367,2024-01-24 10:31:51,0.0
-13500,404,-468,-2583,411,-364,2024-01-24 10:31:51,0.0
-13908,280,-500,-2251,602,-317,2024-01-24 10:31:51,0.0
-14124,92,-368,-1927,523,-349,2024-01-24 10:31:51,0.0
-13932,108,-324,-1654,302,-392,2024-01-24 10:31:51,0.0
-13960,156,-784,-1460,199,-367,2024-01-24 10:31:51,0.0
-14132,232,-436,-1258,-49,-362,2024-01-24 10:31:51,0.0
-14040,296,-228,-985,-561,-341,2024-01-24 10:31:51,0.0
-13724,232,-152,-670,-1003,-236,2024-01-24 10:31:51,0.0
-13636,172,-160,-270,-1065,-174,2024-01-24 10:31:51,0.0
-13464,76,-152,148,-813,-238,2024-01-24 10:31:51,0.0
-13652,116,-388,599,-886,-283,2024-01-24 10:31:51,0.0
-13600,248,-804,937,-1136,-269,2024-01-24 10:31:51,0.0
-13100,348,-500,1269,-1287,-225,2024-01-24 10:31:51,0.0
-12716,364,-424,1626,-1020,-135,2024-01-24 10:31:51,0.0
-12444,336,-116,2056,-206,0,2024-01-24 10:31:51,0.0
-13140,124,-424,2474,541,41,2024-01-24 10:31:51,0.0
-13696,252,-528,2779,750,28,2024-01-24 10:31:51,0.0
-13896,384,-572,2979,618,26,2024-01-24 10:31:51,0.0
-14008,672,-660,3131,239,148,2024-01-24 10:31:51,0.0
-13760,816,-760,3213,-40,223,2024-01-24 10:31:51,0.0
-13480,928,-644,3211,-9,242,2024-01-24 10:31:51,0.0
-13472,820,-548,3238,129,94,2024-01-24 10:31:51,0.0
-13860,876,-716,3236,236,-32,2024-01-24 10:31:51,0.0
-14164,864,-636,3218,-2,-123,2024-01-24 10:31:51,0.0
-13956,620,-392,3170,-456,-204,2024-01-24 10:31:51,0.0
-13436,500,-260,3251,-685,-234,2024-01-24 10:31:51,0.0
-13152,228,-184,3443,-455,-266,2024-01-24 10:31:51,0.0
-13296,100,-268,3670,3,-283,2024-01-24 10:31:51,0.0
-13772,60,-196,3863,329,-264,2024-01-24 10:31:51,0.0
-13860,28,-228,4079,291,-174,2024-01-24 10:31:51,0.0
-13788,260,-412,4205,236,-92,2024-01-24 10:31:51,0.0
-13524,308,-620,4322,371,-9,2024-01-24 10:31:51,0.0
-13376,376,-864,4424,640,88,2024-01-24 10:31:51,0.0
-13528,440,-1064,4450,986,67,2024-01-24 10:31:51,0.0
-13884,340,-984,4554,925,18,2024-01-24 10:31:51,0.0
-14124,248,-992,4548,593,13,2024-01-24 10:31:51,0.0
-14200,360,-704,4535,101,49,2024-01-24 10:31:51,0.0
-14048,108,-524,4690,-261,113,2024-01-24 10:31:51,0.0
-13676,20,-784,4837,-225,187,2024-01-24 10:31:51,0.0
-13328,-224,-840,4983,-87,193,2024-01-24 10:31:51,0.0
-13184,-304,-776,5126,179,156,2024-01-24 10:31:51,0.0
-13292,-40,-792,5184,521,73,2024-01-24 10:31:51,0.0
-13704,236,-936,4966,628,40,2024-01-24 10:31:51,0.0
-14112,748,-1128,4727,361,-42,2024-01-24 10:31:51,0.0
-14036,840,-792,4434,-178,-149,2024-01-24 10:31:51,0.0
-13980,996,-512,4330,-425,-178,2024-01-24 10:31:51,0.0
-13924,796,-564,4224,-413,-149,2024-01-24 10:31:51,0.0
-14448,764,-696,3986,-459,-138,2024-01-24 10:31:51,0.0
-14716,500,-488,3833,-870,-89,2024-01-24 10:31:51,0.0
-14408,732,-828,3802,-1375,40,2024-01-24 10:31:51,
-14008,764,-624,3696,-1688,96,2024-01-24 10:31:52,0.0
-13600,880,-592,3749,-1681,179,2024-01-24 10:31:52,0.0
-13264,660,-792,3826,-1535,102,2024-01-24 10:31:52,0.0
-13188,268,-704,3977,-1536,-87,2024-01-24 10:31:52,0.0
-13048,-12,-968,4029,-1528,-279,2024-01-24 10:31:52,0.0
-13156,-132,-1344,4063,-1260,-471,2024-01-24 10:31:52,0.0
-12384,-556,-1400,4101,-466,-882,2024-01-24 10:31:52,0.0
-12836,-556,-2008,4282,226,-1322,2024-01-24 10:31:52,0.0
-13048,-700,-2128,4569,298,-1628,2024-01-24 10:31:52,0.0
-13028,-776,-2864,4808,107,-1631,2024-01-24 10:31:52,0.0
-12344,-804,-2572,5043,596,-1518,2024-01-24 10:31:52,0.0
-12084,-412,-3052,5211,1804,-1348,2024-01-24 10:31:52,0.0
-11692,-204,-3368,5207,3621,-1178,2024-01-24 10:31:52,0.0
-11532,596,-2484,5322,4783,-1244,2024-01-24 10:31:52,0.0
-11972,436,-1636,4947,5270,-1673,2024-01-24 10:31:52,0.0
-13364,-188,-912,4157,5187,-2386,2024-01-24 10:31:52,0.0
-13956,144,-1624,3257,5285,-2717,2024-01-24 10:31:52,0.0
-15304,368,-1368,2080,5474,-3081,2024-01-24 10:31:52,0.0
-16032,832,-1936,995,4798,-3525,2024-01-24 10:31:52,0.0
-16480,340,-2328,165,3129,-3543,2024-01-24 10:31:52,0.0
-15512,84,-2256,-564,1818,-3219,2024-01-24 10:31:52,0.0
-14280,-148,-1248,-1000,1334,-2819,2024-01-24 10:31:52,0.0
-12816,-1172,-584,-1380,1509,-2402,2024-01-24 10:31:52,0.0
-12300,-2540,-384,-1701,2268,-1901,2024-01-24 10:31:52,0.0
-12460,-3824,-880,-1787,2921,-1615,2024-01-24 10:31:52,0.0
-12864,-4176,-1384,-1825,3024,-1096,2024-01-24 10:31:52,0.0
-13112,-3156,-1384,-1826,3057,-539,2024-01-24 10:31:52,0.0
-13688,-2312,-980,-1886,2844,-99,2024-01-24 10:31:52,0.0
-13628,-2376,-904,-1925,2439,419,2024-01-24 10:31:52,0.0
-13300,-2296,-1328,-2234,1945,1052,2024-01-24 10:31:52,0.0
-13184,-1848,-1856,-2779,1524,1729,2024-01-24 10:31:52,0.0
-13264,-676,-2232,-3555,1691,2465,2024-01-24 10:31:52,0.0
-13052,-752,-2060,-4035,1586,3231,2024-01-24 10:31:52,0.0
-12584,-1940,-3544,-3976,2538,2889,2024-01-24 10:31:52,0.0
-13184,-2716,-4484,-3738,3258,1838,2024-01-24 10:31:52,0.0
-14184,-3324,-3580,-3083,3055,326,2024-01-24 10:31:52,0.0
-14368,-2948,-3112,-2589,2059,-1466,2024-01-24 10:31:52,0.0
-14756,-2320,-2296,-2757,1382,-2395,2024-01-24 10:31:52,0.0
-15400,-996,-1548,-3240,638,-2340,2024-01-24 10:31:52,0.0
-15524,1344,-1928,-4281,-203,-1446,2024-01-24 10:31:52,0.0
-14760,2784,-2184,-6202,-1318,-221,2024-01-24 10:31:52,0.0
-13620,2448,-2376,-7099,-1912,138,2024-01-24 10:31:52,0.0
-12856,1112,-2532,-7666,-2014,-425,2024-01-24 10:31:52,0.0
-13432,-144,-2504,-8195,-1882,-1071,2024-01-24 10:31:52,0.0
-14348,-476,-1640,-8522,-2260,-1372,2024-01-24 10:31:52,0.0
-14712,-8,-1432,-8767,-3042,-1523,2024-01-24 10:31:52,0.0
-14760,492,-2116,-9001,-3629,-1427,2024-01-24 10:31:52,0.0
-13952,0,-2312,-9207,-3825,-1419,2024-01-24 10:31:52,0.0
-13324,-896,-1348,-9130,-3867,-1601,2024-01-24 10:31:52,0.0
-12516,-1420,-1608,-8734,-3709,-1949,2024-01-24 10:31:52,0.0
-12208,-1112,-2116,-8522,-3303,-2253,2024-01-24 10:31:52,0.0
-12560,-348,-1608,-8337,-2828,-2324,2024-01-24 10:31:52,0.0
-13400,228,-1700,-8035,-2619,-2124,2024-01-24 10:31:52,0.0
-13604,880,-1836,-8121,-2506,-2010,2024-01-24 10:31:52,0.0
-13616,1188,-2024,-8213,-2466,-2007,2024-01-24 10:31:52,0.0
-13600,928,-2000,-8271,-2858,-1949,2024-01-24 10:31:52,0.0
-13028,952,-2380,-8455,-3466,-1745,2024-01-24 10:31:52,0.0
-12744,988,-2356,-8785,-3600,-1647,2024-01-24 10:31:52,0.0
-12932,1140,-1924,-9086,-2870,-1605,2024-01-24 10:31:52,0.0
-13284,1604,-2084,-9372,-2116,-1487,2024-01-24 10:31:53,0.0
-13884,1508,-1696,-9667,-2146,-1403,2024-01-24 10:31:53,0.0
-13844,916,-1276,-9709,-2795,-1581,2024-01-24 10:31:53,0.0
-13628,208,-1528,-9537,-3255,-1748,2024-01-24 10:31:53,0.0
-13144,-732,-1660,-9271,-3276,-1840,2024-01-24 10:31:53,0.0
-13172,-1156,-1560,-9076,-3075,-1850,2024-01-24 10:31:53,0.0
-13032,-868,-1312,-8937,-2828,-1806,2024-01-24 10:31:53,0.0
-12884,-692,-816,-8743,-2635,-1734,2024-01-24 10:31:53,0.0
-12992,-816,-460,-8393,-2033,-1603,2024-01-24 10:31:53,0.0
-13544,-944,-604,-7927,-1266,-1442,2024-01-24 10:31:53,0.0
-14240,-1084,-704,-7711,-1132,-1070,2024-01-24 10:31:53,0.0
-14424,-1656,112,-7240,-1133,-1206,2024-01-24 10:31:53,0.0
-15068,-1792,260,-6277,-2118,-1106,2024-01-24 10:31:53,0.0
-14976,-1576,484,-6042,-3785,-886,2024-01-24 10:31:53,0.0
-14604,-452,1040,-5877,-4330,-296,2024-01-24 10:31:53,0.0
-13732,-176,1036,-5508,-4575,-168,2024-01-24 10:31:53,0.0
-13000,-792,1164,-5093,-4969,-509,2024-01-24 10:31:53,0.0
-12264,-1296,1284,-4470,-4651,-895,2024-01-24 10:31:53,0.0
-11936,-1764,1736,-4012,-3813,-1288,2024-01-24 10:31:53,0.0
-12752,-2196,2228,-3199,-2898,-1395,2024-01-24 10:31:53,0.0
-13276,-1996,2348,-2389,-2374,-1325,2024-01-24 10:31:53,0.0
-13788,-1628,2136,-1745,-1910,-1165,2024-01-24 10:31:53,0.0
-14204,-1308,1956,-1224,-1473,-841,2024-01-24 10:31:53,0.0
-14004,-1164,1820,-847,-1227,-756,2024-01-24 10:31:53,0.0
-13880,-1040,1860,-595,-1112,-645,2024-01-24 10:31:53,0.0
-13844,-912,1848,-577,-961,-581,2024-01-24 10:31:53,0.0
-13800,-832,2216,-564,-832,-524,2024-01-24 10:31:53,0.0
-13896,-456,1876,-517,-544,-463,2024-01-24 10:31:53,0.0
-13936,-436,2004,-282,-545,-441,2024-01-24 10:31:53,0.0
-13752,-492,1912,43,-564,-461,2024-01-24 10:31:53,0.0
-13528,-932,1860,431,-425,-504,2024-01-24 10:31:53,0.0
-13716,-1456,1984,818,-289,-605,2024-01-24 10:31:53,0.0
-13484,-1652,2092,1079,-463,-708,2024-01-24 10:31:53,0.0
-13532,-1364,1784,1400,-524,-733,2024-01-24 10:31:53,0.0
-13852,-1056,2008,1716,-576,-722,2024-01-24 10:31:53,0.0
-14068,-836,2024,2008,-484,-614,2024-01-24 10:31:53,0.0
-13984,-720,1956,2135,-313,-557,2024-01-24 10:31:53,0.0
-13796,-948,2128,2399,-249,-569,2024-01-24 10:31:53,0.0
-13828,-1160,2060,2698,-276,-628,2024-01-24 10:31:53,0.0
-13892,-1192,2028,2948,-252,-675,2024-01-24 10:31:53,0.0
-14032,-1148,1920,3130,-317,-634,2024-01-24 10:31:53,
