acceleration_x,acceleration_y,acceleration_z,gyroscope_x,gyroscope_y,gyroscope_z,timestamp,label
-13604,-424,-1236,-139,-227,-200,2024-01-24 10:33:46,0.0
-13636,-368,-1140,-192,-282,-238,2024-01-24 10:33:46,0.0
-13636,-324,-852,-217,-288,-226,2024-01-24 10:33:46,0.0
-13548,-384,-904,-316,-196,-220,2024-01-24 10:33:46,0.0
-13508,-368,-848,-353,-56,-219,2024-01-24 10:33:46,0.0
-13464,-404,-948,-390,-8,-218,2024-01-24 10:33:46,0.0
-13572,-484,-828,-376,101,-197,2024-01-24 10:33:46,0.0
-13588,-428,-868,-400,140,-163,2024-01-24 10:33:46,0.0
-13516,-416,-952,-414,239,-178,2024-01-24 10:33:46,0.0
-13576,-344,-900,-391,272,-185,2024-01-24 10:33:46,0.0
-13584,-412,-1012,-396,295,-219,2024-01-24 10:33:46,0.0
-13700,-564,-1084,-370,335,-233,2024-01-24 10:33:46,0.0
-13796,-572,-1260,-422,266,-268,2024-01-24 10:33:46,0.0
-13784,-452,-1300,-472,84,-248,2024-01-24 10:33:46,0.0
-13648,-452,-1252,-587,-48,-232,2024-01-24 10:33:46,0.0
-13532,-432,-1216,-655,-19,-190,2024-01-24 10:33:46,0.0
-13568,-308,-1216,-718,6,-229,2024-01-24 10:33:46,0.0
-13608,-504,-1064,-728,-27,-234,2024-01-24 10:33:46,0.0
-13580,-472,-920,-751,-21,-227,2024-01-24 10:33:46,0.0
-13416,-568,-972,-728,51,-258,2024-01-24 10:33:46,0.0
-13536,-564,-696,-627,189,-303,2024-01-24 10:33:46,0.0
-13468,-528,-704,-486,217,-307,2024-01-24 10:33:46,0.0
-13480,-600,-584,-384,226,-351,2024-01-24 10:33:46,0.0
-13436,-572,-636,-291,265,-345,2024-01-24 10:33:46,0.0
-13636,-596,-472,-187,381,-309,2024-01-24 10:33:46,0.0
-13632,-544,-620,-24,435,-258,2024-01-24 10:33:46,0.0
-13688,-540,-524,53,416,-185,2024-01-24 10:33:46,0.0
-13764,-500,-652,113,383,-94,2024-01-24 10:33:46,0.0
-13720,-488,-984,171,402,-79,2024-01-24 10:33:46,0.0
-13692,-500,-864,210,389,-54,2024-01-24 10:33:46,0.0
-13808,-512,-1100,249,333,-59,2024-01-24 10:33:46,0.0
-13700,-528,-1092,261,198,-95,2024-01-24 10:33:46,0.0
-13732,-588,-948,257,137,-94,2024-01-24 10:33:46,0.0
-13788,-436,-920,231,81,-81,2024-01-24 10:33:46,0.0
-13796,-504,-896,196,-55,-70,2024-01-24 10:33:46,0.0
-13692,-360,-1012,175,-78,-106,2024-01-24 10:33:46,0.0
-13604,-424,-844,122,-19,-86,2024-01-24 10:33:46,0.0
-13592,-408,-900,124,53,-130,2024-01-24 10:33:46,0.0
-13564,-328,-816,54,81,-130,2024-01-24 10:33:46,0.0
-13576,-376,-800,25,110,-143,2024-01-24 10:33:46,0.0
-13540,-404,-952,-17,191,-138,2024-01-24 10:33:46,0.0
-13476,-476,-924,-60,256,-163,2024-01-24 10:33:46,0.0
-13476,-536,-876,-9,315,-156,2024-01-24 10:33:46,0.0
-13488,-584,-1120,-7,390,-201,2024-01-24 10:33:46,0.0
-13564,-432,-784,-39,493,-185,2024-01-24 10:33:46,0.0
-13696,-476,-1064,26,573,-224,2024-01-24 10:33:47,0.0
-13796,-460,-940,13,696,-185,2024-01-24 10:33:47,0.0
-13812,-472,-1424,36,1054,-143,2024-01-24 10:33:47,0.0
-14328,-256,-1556,87,1426,-44,2024-01-24 10:33:47,0.0
-14304,-420,-1812,74,1251,-88,2024-01-24 10:33:47,0.0
-14016,-708,-2380,-172,1239,-179,2024-01-24 10:33:47,0.0
-13876,-952,-2060,-291,1309,-299,2024-01-24 10:33:47,0.0
-13768,-1444,-1620,-135,947,-564,2024-01-24 10:33:47,0.0
-13700,-1808,-784,392,750,-783,2024-01-24 10:33:47,0.0
-13264,-1420,-380,1091,347,-1043,2024-01-24 10:33:47,0.0
-13032,-1872,128,1425,-377,-1248,2024-01-24 10:33:47,0.0
-12820,-2548,988,1921,-1144,-1201,2024-01-24 10:33:47,0.0
-12380,-2620,260,2232,-867,-1021,2024-01-24 10:33:47,0.0
-12964,-2348,500,2294,-457,-850,2024-01-24 10:33:47,0.0
-13144,-1944,736,2326,-341,-544,2024-01-24 10:33:47,0.0
-13224,-1708,264,2477,48,-296,2024-01-24 10:33:47,0.0
-13596,-1388,-212,2260,76,-200,2024-01-24 10:33:47,0.0
-13724,-1568,124,2076,140,-232,2024-01-24 10:33:47,0.0
-14088,-1132,-108,2080,437,-353,2024-01-24 10:33:47,0.0
-14324,-796,-520,1890,652,-277,2024-01-24 10:33:47,0.0
-14036,-488,-940,1522,785,-146,2024-01-24 10:33:47,0.0
-13228,-784,-1216,870,838,-199,2024-01-24 10:33:47,0.0
-12792,-1200,-972,544,1018,-354,2024-01-24 10:33:47,0.0
-12908,-1400,-1240,317,1389,-405,2024-01-24 10:33:47,0.0
-13028,-1464,-1336,14,1736,-418,2024-01-24 10:33:47,0.0
-13152,-976,-1540,-404,1938,-333,2024-01-24 10:33:47,0.0
-12828,-800,-1404,-657,1949,-473,2024-01-24 10:33:47,0.0
-13012,-636,-1212,-911,2064,-615,2024-01-24 10:33:47,0.0
-13204,-632,-1460,-1177,2404,-744,2024-01-24 10:33:47,0.0
-13184,-476,-2112,-1470,2742,-672,2024-01-24 10:33:47,0.0
-12780,-356,-2856,-1916,3141,-686,2024-01-24 10:33:47,0.0
-13008,-216,-3676,-2431,3220,-843,2024-01-24 10:33:47,0.0
-13140,-32,-4740,-3171,3260,-1146,2024-01-24 10:33:47,0.0
-13084,-104,-4940,-3861,3263,-1267,2024-01-24 10:33:47,0.0
-13080,-220,-4692,-4414,3313,-1339,2024-01-24 10:33:47,0.0
-13220,96,-4548,-4928,4311,-1302,2024-01-24 10:33:47,0.0
-13388,-16,-3728,-5127,4887,-1033,2024-01-24 10:33:47,0.0
-13020,-96,-2780,-5077,4773,-735,2024-01-24 10:33:47,0.0
-12564,-16,-1060,-5013,4954,-531,2024-01-24 10:33:47,0.0
-12788,-496,476,-4531,5677,-388,2024-01-24 10:33:47,0.0
-13760,-1064,648,-3920,6725,-72,2024-01-24 10:33:47,0.0
-15228,-1668,-64,-3596,7312,406,2024-01-24 10:33:47,0.0
-17300,-1944,-908,-3474,6572,1110,2024-01-24 10:33:47,0.0
-17564,-792,-1644,-3618,5065,1799,2024-01-24 10:33:47,0.0
-16728,396,-1708,-4010,3297,2383,2024-01-24 10:33:47,0.0
-14912,1160,-856,-4389,1749,2599,2024-01-24 10:33:47,0.0
-14240,1116,-228,-4302,1492,2531,2024-01-24 10:33:47,0.0
-14044,632,-224,-4020,1461,2363,2024-01-24 10:33:47,0.0
-15328,-616,1064,-3442,1610,2453,2024-01-24 10:33:47,0.0
-15772,-2308,1876,-2459,1657,3211,2024-01-24 10:33:47,0.0
-14416,-1812,180,-1775,1305,3658,2024-01-24 10:33:47,0.0
-13820,216,412,-1438,97,3903,2024-01-24 10:33:47,0.0
-12656,424,392,-1262,-1143,3717,2024-01-24 10:33:47,0.0
-12592,952,612,-903,-931,3517,2024-01-24 10:33:47,0.0
-12000,1324,324,-961,-231,3461,2024-01-24 10:33:47,
-12432,1136,540,-958,-271,3435,2024-01-24 10:33:47,0.0
-13760,520,1132,-627,-1293,3593,2024-01-24 10:33:47,0.0
-13884,-148,1196,204,-3319,3691,2024-01-24 10:33:47,0.0
-13188,-440,1084,1198,-5019,3184,2024-01-24 10:33:47,0.0
-12168,-528,1220,2046,-6149,2250,2024-01-24 10:33:47,0.0
-11848,272,176,2618,-6067,1292,2024-01-24 10:33:48,0.0
-11144,1448,-544,2678,-5342,602,2024-01-24 10:33:48,0.0
-11252,2736,564,2780,-5218,145,2024-01-24 10:33:48,0.0
-11876,3076,1184,3003,-5348,-228,2024-01-24 10:33:48,0.0
-12444,3312,1200,2905,-5707,-181,2024-01-24 10:33:48,0.0
-11964,3264,1776,2860,-5625,-376,2024-01-24 10:33:48,0.0
-12192,2192,2724,3309,-4520,-830,2024-01-24 10:33:48,0.0
-12884,728,4020,4226,-2796,-1079,2024-01-24 10:33:48,0.0
-14084,444,4816,5508,-744,-930,2024-01-24 10:33:48,0.0
-15980,924,4684,6574,1405,-484,2024-01-24 10:33:48,0.0
-17796,2336,3428,7527,1952,34,2024-01-24 10:33:48,0.0
-16388,4060,-1668,7238,2929,23,2024-01-24 10:33:48,0.0
-18072,6100,-3924,6209,5120,-111,2024-01-24 10:33:48,0.0
-24880,6328,-1152,5846,5506,381,2024-01-24 10:33:48,0.0
-27616,6264,-3584,4853,2828,2224,2024-01-24 10:33:48,0.0
-21060,5276,-8528,2096,-256,2102,2024-01-24 10:33:48,0.0
-14592,7488,-5664,719,-3371,253,2024-01-24 10:33:48,0.0
-12608,7004,-8496,1385,-5523,-1607,2024-01-24 10:33:48,0.0
-12644,4444,-10404,-364,-3936,-3619,2024-01-24 10:33:48,0.0
-14972,2384,-6180,-759,-3522,-3837,2024-01-24 10:33:48,0.0
-16084,-1700,-5876,-707,-3719,-4127,2024-01-24 10:33:48,0.0
-18476,-4528,-5148,-1159,-2209,-4278,2024-01-24 10:33:48,0.0
-18392,-5800,-2596,-934,-1923,-4224,2024-01-24 10:33:48,0.0
-16436,-5464,-2184,-455,-4113,-4805,2024-01-24 10:33:48,0.0
-13780,-4624,-1436,-329,-5627,-5556,2024-01-24 10:33:48,0.0
-10312,-3572,-864,28,-4614,-6001,2024-01-24 10:33:48,0.0
-6000,-2176,640,1826,-3848,-6767,2024-01-24 10:33:48,0.0
-4420,-788,-1200,2011,-3640,-7031,2024-01-24 10:33:48,0.0
-4052,52,-1692,998,-2726,-6510,2024-01-24 10:33:48,0.0
-4412,1128,-1064,158,-1987,-5971,2024-01-24 10:33:48,0.0
-5836,356,-468,-972,-2089,-5802,2024-01-24 10:33:48,0.0
-6188,-332,396,-1739,-2349,-5817,2024-01-24 10:33:48,0.0
-6216,-288,28,-2562,-1055,-5549,2024-01-24 10:33:48,0.0
-7844,-892,-128,-3825,490,-3924,2024-01-24 10:33:48,0.0
-9696,-1112,224,-4975,1129,-1965,2024-01-24 10:33:48,0.0
-12436,-1696,1664,-5239,253,-468,2024-01-24 10:33:48,0.0
-14596,-2380,2428,-5856,-2490,1108,2024-01-24 10:33:48,0.0
-14768,-2396,3800,-6005,-5587,2116,2024-01-24 10:33:48,0.0
-13032,-2956,3092,-5800,-6940,2129,2024-01-24 10:33:48,0.0
-10344,-4220,2256,-5718,-3565,573,2024-01-24 10:33:48,0.0
-11748,-4180,3520,-5522,434,-835,2024-01-24 10:33:48,0.0
-13800,-4288,6108,-4064,1065,-1454,2024-01-24 10:33:48,0.0
-13684,-5184,6892,-3345,2303,-2318,2024-01-24 10:33:48,0.0
-16920,-5396,8012,-3049,3870,-3250,2024-01-24 10:33:48,0.0
-18912,-4712,5756,-3125,3477,-3618,2024-01-24 10:33:48,0.0
-15232,-11988,-5468,-3587,7222,-5191,2024-01-24 10:33:48,0.0
-28076,-12032,1064,-1370,6769,-6784,2024-01-24 10:33:48,0.0
-26004,-8648,-2204,3675,1181,-9063,2024-01-24 10:33:48,0.0
-28532,-6288,-2728,5675,-5378,-8350,2024-01-24 10:33:48,0.0
-18804,-3640,-5976,5478,-7829,-3379,2024-01-24 10:33:48,0.0
-11136,-3400,-9488,3773,-4388,-147,2024-01-24 10:33:48,0.0
-13020,-5216,-4036,2066,-1909,1139,2024-01-24 10:33:48,0.0
-19972,-1128,-692,1701,-997,3577,2024-01-24 10:33:48,0.0
-24028,1704,-3764,2001,-2276,6419,2024-01-24 10:33:48,0.0
-19616,4732,-5212,2367,-3865,6814,2024-01-24 10:33:48,0.0
-14792,5216,-2680,664,-4866,4498,2024-01-24 10:33:48,0.0
-13624,3084,-120,-270,-6169,4255,2024-01-24 10:33:48,0.0
-11044,-560,-1548,-431,-6125,6534,2024-01-24 10:33:48,0.0
-6544,-2320,-2400,-407,-4373,8364,2024-01-24 10:33:48,0.0
-5260,-3428,-604,-68,-1949,9217,2024-01-24 10:33:48,0.0
-4352,-4296,488,332,-1894,8960,2024-01-24 10:33:49,0.0
-4784,-3136,2932,1077,-3475,7256,2024-01-24 10:33:49,0.0
-4920,-300,3468,1592,-2201,4902,2024-01-24 10:33:49,0.0
-6108,204,3704,2088,-2377,3519,2024-01-24 10:33:49,0.0
-6512,596,1592,2848,-2528,2625,2024-01-24 10:33:49,0.0
-6540,1840,464,2811,-2993,1787,2024-01-24 10:33:49,0.0
-5748,2204,2396,2569,-2429,740,2024-01-24 10:33:49,0.0
-7612,2444,5692,3011,-1723,-834,2024-01-24 10:33:49,0.0
-11668,2368,5204,3457,-1975,-1544,2024-01-24 10:33:49,0.0
-15388,3716,3156,3499,-2306,-1325,2024-01-24 10:33:49,0.0
-13552,2740,3680,3522,-1772,-1262,2024-01-24 10:33:49,0.0
-12004,716,5500,3917,1009,-874,2024-01-24 10:33:49,0.0
-13196,-3736,5000,4653,4357,-771,2024-01-24 10:33:49,0.0
-20228,-616,5784,4797,5466,-322,2024-01-24 10:33:49,0.0
-21760,3716,6468,5136,2586,275,2024-01-24 10:33:49,0.0
-18520,6404,7056,4272,733,800,2024-01-24 10:33:49,0.0
-14148,11068,1084,3410,2733,1253,2024-01-24 10:33:49,0.0
-24548,6184,-2592,1101,7261,3349,2024-01-24 10:33:49,0.0
-30500,6624,-6152,-3041,2792,5695,2024-01-24 10:33:49,0.0
-25420,9704,-11976,-6149,370,10276,2024-01-24 10:33:49,0.0
-17348,2424,-6544,-7936,-3893,9029,2024-01-24 10:33:49,0.0
-13636,-5072,-2924,-6197,-3604,6637,2024-01-24 10:33:49,0.0
-11104,-3900,-980,-4395,-1281,4216,2024-01-24 10:33:49,0.0
-11984,-2692,-976,-2695,1346,1167,2024-01-24 10:33:49,0.0
-15776,-4548,244,-1777,1656,-2428,2024-01-24 10:33:49,0.0
-17932,-5324,-368,-1223,-554,-6222,2024-01-24 10:33:49,0.0
-20900,-4708,-1320,-2219,-1062,-7290,2024-01-24 10:33:49,0.0
-19096,-2860,684,-2372,-599,-5749,2024-01-24 10:33:49,0.0
-11724,856,1932,-2842,-2703,-5697,2024-01-24 10:33:49,0.0
-6572,2216,520,-3147,-3435,-6659,2024-01-24 10:33:49,0.0
-3056,3092,-332,-4237,-2260,-7434,2024-01-24 10:33:49,0.0
-2256,2824,2552,-4980,-752,-7962,2024-01-24 10:33:49,0.0
-2840,1128,2312,-5266,2906,-7738,2024-01-24 10:33:49,0.0
-8876,-1072,3288,-5581,5636,-5833,2024-01-24 10:33:49,0.0
-11196,-2880,1920,-6151,4604,-3843,2024-01-24 10:33:49,
-11344,-3812,1976,-6511,1782,-1859,2024-01-24 10:33:49,0.0
-8960,-3432,1464,-6026,-407,-986,2024-01-24 10:33:49,0.0
-10092,-2808,2684,-5719,-1380,466,2024-01-24 10:33:49,0.0
-8864,-2168,2684,-5808,-1165,2076,2024-01-24 10:33:49,0.0
-9380,-2356,4460,-5884,-1130,3372,2024-01-24 10:33:49,0.0
-11100,-3828,7068,-5431,-1560,3892,2024-01-24 10:33:49,0.0
-11512,-3624,5684,-4824,-2303,3294,2024-01-24 10:33:49,0.0
-12372,-2580,4484,-4390,-1641,2846,2024-01-24 10:33:49,0.0
-12296,-2684,2028,-3535,1619,1997,2024-01-24 10:33:49,0.0
-13704,-2808,3500,-2864,5174,-26,2024-01-24 10:33:49,0.0
-16472,-2576,5696,-2817,7254,-2394,2024-01-24 10:33:49,0.0
-19264,-4192,7884,-2078,7824,-4722,2024-01-24 10:33:49,0.0
-19448,-4456,8860,-1613,5646,-4660,2024-01-24 10:33:49,0.0
-13148,-7216,-208,-928,7593,-4166,2024-01-24 10:33:49,0.0
-23928,-11312,4188,314,9613,-6632,2024-01-24 10:33:49,0.0
-24748,-10684,-308,3787,6756,-9038,2024-01-24 10:33:49,0.0
-25076,-9460,-4236,6809,3294,-11361,2024-01-24 10:33:49,0.0
-25224,-2276,-4784,7951,-2048,-11082,2024-01-24 10:33:49,0.0
-19776,2644,-8060,7216,-5241,-5415,2024-01-24 10:33:49,0.0
-10204,-3836,-9408,5325,-2993,-2182,2024-01-24 10:33:49,0.0
-15684,-3764,-3216,4321,370,-493,2024-01-24 10:33:49,0.0
-23404,280,-3132,2740,1788,4085,2024-01-24 10:33:49,0.0
-24472,4088,-4416,1361,474,8102,2024-01-24 10:33:49,0.0
-19112,5112,-4332,1074,-1493,7631,2024-01-24 10:33:49,0.0
-15996,3512,-1260,672,-4444,4822,2024-01-24 10:33:49,0.0
-14792,44,180,804,-7966,4260,2024-01-24 10:33:50,0.0
-10320,-1488,-4420,1357,-8182,4829,2024-01-24 10:33:50,0.0
-8068,-1932,-2492,1741,-5395,6670,2024-01-24 10:33:50,0.0
-5696,-1920,-996,2371,-4445,8029,2024-01-24 10:33:50,0.0
-4208,-1776,2056,3412,-4281,7932,2024-01-24 10:33:50,0.0
-3216,-1416,2228,4073,-4321,5441,2024-01-24 10:33:50,0.0
-4348,-1112,1552,4361,-2616,4071,2024-01-24 10:33:50,0.0
-4496,-1080,1148,4632,-828,2409,2024-01-24 10:33:50,0.0
-5900,-120,2780,4819,-620,720,2024-01-24 10:33:50,0.0
-5452,644,5088,5033,-1219,-961,2024-01-24 10:33:50,0.0
-6444,248,6628,5882,-543,-2230,2024-01-24 10:33:50,0.0
-8900,1576,5764,6403,254,-2799,2024-01-24 10:33:50,0.0
-12396,3384,3128,6011,270,-2360,2024-01-24 10:33:50,0.0
-12936,2984,1376,5451,-877,-1837,2024-01-24 10:33:50,0.0
-10748,2520,-1576,4053,-242,-1706,2024-01-24 10:33:50,0.0
-10612,988,1900,2705,1674,-1706,2024-01-24 10:33:50,0.0
-19496,-1080,6800,2541,2969,-1435,2024-01-24 10:33:50,0.0
-23180,1436,7304,2667,3111,-118,2024-01-24 10:33:50,0.0
-20280,2568,8004,2889,1916,582,2024-01-24 10:33:50,0.0
-16972,2736,7712,3213,-563,953,2024-01-24 10:33:50,0.0
-15844,8984,-600,3164,5548,2478,2024-01-24 10:33:50,0.0
-27884,2132,-2752,562,4788,5423,2024-01-24 10:33:50,0.0
-28236,7444,-9388,-2238,2937,9406,2024-01-24 10:33:50,0.0
-20504,5176,-7544,-4702,-1193,11394,2024-01-24 10:33:50,0.0
-13268,-16,-3532,-4015,-2936,8868,2024-01-24 10:33:50,0.0
-8660,-2964,-1860,-2153,-2898,5674,2024-01-24 10:33:50,0.0
-9940,-2524,28,-212,-100,2066,2024-01-24 10:33:50,0.0
-14224,-5276,2940,1377,1320,-1518,2024-01-24 10:33:50,0.0
-18552,-5800,-40,2600,741,-4991,2024-01-24 10:33:50,0.0
-22140,-2964,-2772,1848,1183,-7136,2024-01-24 10:33:50,0.0
-22568,108,-1216,-214,-192,-6443,2024-01-24 10:33:50,0.0
-17068,980,780,-1265,-3859,-5287,2024-01-24 10:33:50,0.0
-9872,1344,-540,-1700,-5492,-5649,2024-01-24 10:33:50,0.0
-5632,1292,-1696,-2375,-3959,-6579,2024-01-24 10:33:50,0.0
-3468,364,-1336,-3347,-1271,-7495,2024-01-24 10:33:50,0.0
-4036,-716,-8,-3731,1290,-7784,2024-01-24 10:33:50,0.0
-7052,-1848,768,-4162,2063,-6781,2024-01-24 10:33:50,0.0
-8556,-2456,1180,-4744,2610,-4725,2024-01-24 10:33:50,0.0
-7524,-2148,928,-5595,2908,-3350,2024-01-24 10:33:50,0.0
-7348,-1432,1928,-6044,3081,-2535,2024-01-24 10:33:50,0.0
-8704,-712,3520,-5970,2753,-1192,2024-01-24 10:33:50,0.0
-9756,-632,4420,-5865,1559,760,2024-01-24 10:33:50,0.0
-9840,-1456,3476,-6173,787,2659,2024-01-24 10:33:50,0.0
-9588,-1348,2492,-6337,1365,3750,2024-01-24 10:33:50,0.0
-10204,-2376,2036,-5372,2330,3599,2024-01-24 10:33:50,0.0
-12284,-2588,1032,-5242,2535,2201,2024-01-24 10:33:50,0.0
-14716,-1860,1508,-5683,3193,1344,2024-01-24 10:33:50,0.0
-15236,-1928,3408,-5222,4046,-343,2024-01-24 10:33:50,0.0
-16900,-1372,6176,-4695,4052,-3251,2024-01-24 10:33:50,0.0
-18196,-3164,7044,-3566,3862,-4562,2024-01-24 10:33:50,0.0
-17908,-4940,7180,-2911,3782,-3949,2024-01-24 10:33:50,0.0
-15456,-6576,5004,-2663,5849,-3291,2024-01-24 10:33:50,0.0
-16620,-11164,944,-2080,11561,-5583,2024-01-24 10:33:50,0.0
-25528,-5736,344,-1086,6619,-7356,2024-01-24 10:33:50,0.0
-23536,-6364,-2448,1720,1632,-9731,2024-01-24 10:33:50,0.0
-21932,-6440,-5660,5638,-1030,-9742,2024-01-24 10:33:50,0.0
-16428,-2292,-8472,4388,-4153,-6432,2024-01-24 10:33:50,0.0
-8952,-2732,-9480,1513,-2256,-3784,2024-01-24 10:33:50,0.0
-11312,-1248,-5988,-1604,1918,-1649,2024-01-24 10:33:50,0.0
-19516,2872,-3500,-3392,4338,1579,2024-01-24 10:33:50,0.0
-23604,6056,-4756,-4796,2752,4587,2024-01-24 10:33:51,0.0
-21356,4340,-5108,-4559,1590,5140,2024-01-24 10:33:51,0.0
-19788,936,-2872,-4543,-709,3965,2024-01-24 10:33:51,0.0
-19124,-2824,1304,-3524,-5040,3595,2024-01-24 10:33:51,0.0
-15864,-5480,536,-1260,-6984,4362,2024-01-24 10:33:51,0.0
-11348,-5420,-1904,358,-4523,5498,2024-01-24 10:33:51,0.0
-7844,-5004,-1480,1962,-3112,7379,2024-01-24 10:33:51,0.0
-5084,-4752,0,3041,-3365,8410,2024-01-24 10:33:51,0.0
-2744,-3260,1516,3898,-4290,6877,2024-01-24 10:33:51,0.0
-3616,-704,1972,4425,-4709,4357,2024-01-24 10:33:51,0.0
-4300,1360,1928,4891,-4839,3698,2024-01-24 10:33:51,0.0
-4168,1824,1316,5396,-3696,3283,2024-01-24 10:33:51,0.0
-3868,2108,1368,5551,-2480,1766,2024-01-24 10:33:51,0.0
-5768,2224,1980,5311,-1655,169,2024-01-24 10:33:51,0.0
-6580,792,3504,5473,-614,-607,2024-01-24 10:33:51,
-8464,484,3420,5477,244,-1463,2024-01-24 10:33:51,0.0
-12180,2396,3060,5003,1288,-2203,2024-01-24 10:33:51,0.0
-14964,3040,2456,5127,741,-1709,2024-01-24 10:33:51,0.0
-14148,1648,348,4467,1166,-976,2024-01-24 10:33:51,0.0
-13324,-1340,1004,3458,2788,-1380,2024-01-24 10:33:51,0.0
-21004,-1620,4708,3695,3411,-562,2024-01-24 10:33:51,0.0
-24200,1316,6568,4315,2006,2127,2024-01-24 10:33:51,0.0
-19488,3596,5712,4239,1465,2559,2024-01-24 10:33:51,0.0
-17080,4256,4596,3706,2534,2326,2024-01-24 10:33:51,0.0
-20456,6032,-700,2352,6786,3326,2024-01-24 10:33:51,0.0
-29312,4412,-1628,275,4218,5389,2024-01-24 10:33:51,0.0
-24144,8636,-8348,-3158,739,7488,2024-01-24 10:33:51,0.0
-20560,7764,-5408,-4723,-2910,8688,2024-01-24 10:33:51,0.0
-14056,4748,-4160,-4763,-4460,7589,2024-01-24 10:33:51,0.0
-6632,-324,-6144,-4048,-3377,5448,2024-01-24 10:33:51,0.0
-8972,-3252,-2264,-1565,328,2610,2024-01-24 10:33:51,0.0
-13440,-8516,1160,-10,2204,-356,2024-01-24 10:33:51,0.0
-17460,-7904,-2000,926,1995,-3683,2024-01-24 10:33:51,0.0
-21724,-4608,-2468,575,3146,-5418,2024-01-24 10:33:51,0.0
-21244,-1256,-2076,-220,846,-5426,2024-01-24 10:33:51,0.0
-18916,572,1008,-1231,-2681,-5582,2024-01-24 10:33:51,0.0
-11640,1072,44,-2047,-3644,-6408,2024-01-24 10:33:51,0.0
-6204,1776,-884,-2896,-2344,-7414,2024-01-24 10:33:51,0.0
-3508,1132,-528,-4110,196,-8546,2024-01-24 10:33:51,0.0
-6020,640,104,-5594,264,-8406,2024-01-24 10:33:51,0.0
-7992,-160,280,-6573,1022,-6493,2024-01-24 10:33:51,0.0
-6708,-1488,572,-7258,1093,-5045,2024-01-24 10:33:51,0.0
-5444,-2400,1300,-7819,1246,-3854,2024-01-24 10:33:51,0.0
-4748,-1948,1856,-7873,2306,-2795,2024-01-24 10:33:51,0.0
-6376,-1852,3480,-7503,2333,-1707,2024-01-24 10:33:51,0.0
-9872,-2992,4552,-7327,1004,517,2024-01-24 10:33:51,0.0
-11716,-2076,4432,-7411,-1119,3312,2024-01-24 10:33:51,0.0
-12740,-2856,3648,-6608,-2845,4500,2024-01-24 10:33:51,0.0
-12580,-4148,1588,-5683,-3916,4567,2024-01-24 10:33:51,0.0
-11148,-3508,3156,-3714,-2183,3459,2024-01-24 10:33:51,0.0
-11916,-4772,2124,-2439,2656,811,2024-01-24 10:33:51,0.0
-16404,-4036,4848,-2510,6725,-2034,2024-01-24 10:33:51,0.0
-18932,-3892,7336,-1104,7133,-4602,2024-01-24 10:33:51,0.0
-20116,-4268,6656,-197,5376,-4238,2024-01-24 10:33:51,0.0
-16196,-5208,5312,-298,4273,-2820,2024-01-24 10:33:51,0.0
-18068,-11580,-3428,-152,9771,-4825,2024-01-24 10:33:51,0.0
-28044,-7080,324,2848,3934,-7188,2024-01-24 10:33:51,0.0
-24332,-10996,-5708,5790,190,-9982,2024-01-24 10:33:51,0.0
-23996,-7240,-6460,9213,-3859,-10341,2024-01-24 10:33:51,0.0
-18532,-2716,-8776,9076,-6853,-7184,2024-01-24 10:33:52,0.0
-12200,-3096,-10704,6299,-4796,-3396,2024-01-24 10:33:52,0.0
-15812,-1888,-4328,3377,-1679,368,2024-01-24 10:33:52,0.0
-19876,1000,-2548,1937,557,3866,2024-01-24 10:33:52,0.0
-21016,4788,-4748,151,171,6764,2024-01-24 10:33:52,0.0
-18812,5528,-5104,-247,-176,6012,2024-01-24 10:33:52,0.0
-19188,2560,596,-801,-1556,3505,2024-01-24 10:33:52,0.0
-17220,-1728,1652,-297,-4577,3450,2024-01-24 10:33:52,0.0
-13844,-3900,980,932,-5120,4445,2024-01-24 10:33:52,0.0
-12056,-3968,-1240,1156,-3652,5006,2024-01-24 10:33:52,0.0
-8712,-2752,-288,2170,-2705,6663,2024-01-24 10:33:52,0.0
-7000,-1652,424,3277,-3815,6956,2024-01-24 10:33:52,0.0
-4452,-672,-44,3922,-3978,6108,2024-01-24 10:33:52,0.0
-4340,-472,-260,4164,-4295,4609,2024-01-24 10:33:52,0.0
-4336,-572,156,4602,-4532,3205,2024-01-24 10:33:52,0.0
-4204,-372,796,4654,-4119,2277,2024-01-24 10:33:52,0.0
-3972,1144,1912,4200,-2915,847,2024-01-24 10:33:52,0.0
-4864,1776,3588,4393,-2102,-578,2024-01-24 10:33:52,0.0
-7260,1604,4164,4763,-1616,-2011,2024-01-24 10:33:52,0.0
-10524,2268,4232,4762,-1376,-3181,2024-01-24 10:33:52,0.0
-14708,2964,3888,4581,-4390,-2835,2024-01-24 10:33:52,0.0
-12944,1780,2140,4381,-5532,-2196,2024-01-24 10:33:52,0.0
-11152,804,968,3024,-1929,-1725,2024-01-24 10:33:52,0.0
-13324,-1876,4092,2432,1228,-1940,2024-01-24 10:33:52,0.0
-22324,-1240,8480,3070,2911,-676,2024-01-24 10:33:52,0.0
-21632,776,6620,3850,4294,597,2024-01-24 10:33:52,0.0
-17440,3468,6120,3493,1573,666,2024-01-24 10:33:52,0.0
-14536,8064,4196,2593,2497,433,2024-01-24 10:33:52,0.0
-25228,6992,24,-449,3764,3379,2024-01-24 10:33:52,0.0
-30780,5920,1208,-2289,-223,6266,2024-01-24 10:33:52,0.0
-23268,7912,-6840,-5014,-1822,8960,2024-01-24 10:33:52,0.0
-17484,3440,-4028,-5456,-3078,8602,2024-01-24 10:33:52,0.0
-12556,-1500,-1648,-4765,-2117,6926,2024-01-24 10:33:52,0.0
-8940,-4720,-664,-3399,-1149,4383,2024-01-24 10:33:52,0.0
-12244,-4144,600,-2255,1422,1726,2024-01-24 10:33:52,0.0
-17312,-4832,-92,-773,238,-736,2024-01-24 10:33:52,0.0
-20148,-2288,-3048,-1185,-2221,-2527,2024-01-24 10:33:52,0.0
-19348,240,-3244,-2478,-2181,-2166,2024-01-24 10:33:52,0.0
-16376,-136,820,-3232,-2655,-1600,2024-01-24 10:33:52,0.0
-12156,-1024,-76,-3785,-4749,-3284,2024-01-24 10:33:52,0.0
-8572,-564,-1032,-4729,-4922,-5167,2024-01-24 10:33:52,0.0
-5560,-80,-1012,-5576,-3515,-6479,2024-01-24 10:33:52,0.0
-5420,856,504,-6278,-1590,-7527,2024-01-24 10:33:52,0.0
-7968,1632,1560,-7269,1152,-7681,2024-01-24 10:33:52,0.0
-9744,424,2480,-7777,1426,-6415,2024-01-24 10:33:52,0.0
-10664,-212,3208,-7821,1754,-4575,2024-01-24 10:33:52,0.0
-9568,-1308,4548,-7747,1981,-2827,2024-01-24 10:33:52,0.0
-8300,-2704,3748,-7233,2439,-1376,2024-01-24 10:33:52,0.0
-9376,-2576,2680,-6747,1468,71,2024-01-24 10:33:52,0.0
-9520,-2420,3072,-6741,-573,1064,2024-01-24 10:33:52,0.0
-10824,-2332,4844,-6256,-1921,1819,2024-01-24 10:33:52,0.0
-12368,-2324,5416,-5127,-2348,2643,2024-01-24 10:33:52,0.0
-13032,-1948,4208,-4434,-3077,2995,2024-01-24 10:33:52,0.0
-11976,-2536,5700,-3990,-2043,2648,2024-01-24 10:33:52,0.0
-9824,-3344,3448,-2864,1935,1758,2024-01-24 10:33:52,0.0
-13308,-2636,3320,-3251,4417,-624,2024-01-24 10:33:52,
-15528,-1592,5404,-4028,3534,-2984,2024-01-24 10:33:52,0.0
-15516,-748,6540,-3926,2434,-4140,2024-01-24 10:33:53,0.0
-15584,-800,9824,-4014,2283,-3897,2024-01-24 10:33:53,0.0
-13800,-7196,6844,-3277,4918,-2522,2024-01-24 10:33:53,0.0
-17700,-8388,4676,-2833,9008,-2915,2024-01-24 10:33:53,0.0
-21880,-5756,2840,-1171,3897,-6903,2024-01-24 10:33:53,0.0
-22952,-8048,-864,808,1730,-10344,2024-01-24 10:33:53,0.0
-20700,-5180,-4092,3091,1211,-9995,2024-01-24 10:33:53,0.0
-17220,-2424,-7088,2601,2643,-9379,2024-01-24 10:33:53,0.0
-17020,-52,-6612,-1230,-42,-6461,2024-01-24 10:33:53,0.0
-18176,2076,-1368,-2665,-869,-2218,2024-01-24 10:33:53,0.0
-18784,4936,-2408,-3381,773,2810,2024-01-24 10:33:53,0.0
-18848,4996,-3112,-4433,2603,5540,2024-01-24 10:33:53,0.0
-20348,196,-700,-4229,3195,4818,2024-01-24 10:33:53,0.0
-21020,-2792,356,-4065,-185,4429,2024-01-24 10:33:53,0.0
-17496,-4452,1932,-3241,-4772,4326,2024-01-24 10:33:53,0.0
-14516,-5072,2876,-1361,-5788,3947,2024-01-24 10:33:53,0.0
-12700,-4920,1556,28,-4030,4754,2024-01-24 10:33:53,0.0
-11028,-3380,1052,1120,-3040,5613,2024-01-24 10:33:53,0.0
-8656,-1752,1068,2164,-2448,6301,2024-01-24 10:33:53,0.0
-7080,-376,1124,2316,-2223,5826,2024-01-24 10:33:53,0.0
-6984,640,2004,2647,-2261,4756,2024-01-24 10:33:53,0.0
-5640,368,1548,2769,-1429,3542,2024-01-24 10:33:53,0.0
-5696,72,2516,2923,-25,2258,2024-01-24 10:33:53,0.0
-6672,988,3288,2557,521,1665,2024-01-24 10:33:53,0.0
-6816,1880,3820,2372,1614,616,2024-01-24 10:33:53,0.0
-8312,2736,3604,2027,2511,-728,2024-01-24 10:33:53,0.0
-10452,2736,4780,1412,1586,-1876,2024-01-24 10:33:53,0.0
-13072,2192,5492,1211,-419,-2706,2024-01-24 10:33:53,0.0
-13568,2116,3712,1009,-2332,-2860,2024-01-24 10:33:53,0.0
-12216,1408,1528,775,-1799,-2784,2024-01-24 10:33:53,0.0
-13268,-744,1888,203,903,-2827,2024-01-24 10:33:53,0.0
-15352,-1980,2228,-276,2997,-2170,2024-01-24 10:33:53,0.0
-18120,-1324,4352,255,2273,-820,2024-01-24 10:33:53,0.0
-17676,-1012,5164,1111,467,61,2024-01-24 10:33:53,0.0
-15516,260,5408,2618,722,628,2024-01-24 10:33:53,0.0
-14052,-40,6760,3082,1820,756,2024-01-24 10:33:53,0.0
-12784,1692,7992,3512,3707,178,2024-01-24 10:33:53,0.0
-15716,4700,3040,4163,10364,852,2024-01-24 10:33:53,0.0
-25804,3884,-1988,1935,7917,1527,2024-01-24 10:33:53,0.0
-27416,6716,-5128,-1119,818,3781,2024-01-24 10:33:53,0.0
-18656,8856,-6868,-4384,-991,6031,2024-01-24 10:33:53,0.0
-17200,5112,-5972,-6176,-36,6968,2024-01-24 10:33:53,0.0
-16028,-3920,-3544,-5917,1195,6828,2024-01-24 10:33:53,0.0
-14948,-8040,544,-3359,45,5121,2024-01-24 10:33:53,0.0
-13952,-10744,-432,-407,-1769,3198,2024-01-24 10:33:53,0.0
-13872,-7780,-3084,397,-2527,244,2024-01-24 10:33:53,0.0
-13228,-3160,-3820,1333,383,-230,2024-01-24 10:33:53,0.0
-14484,-416,-800,1803,2847,-538,2024-01-24 10:33:53,0.0
-16672,2112,-2052,1332,2112,-1271,2024-01-24 10:33:53,0.0
-16764,2096,-2472,-1018,365,-1633,2024-01-24 10:33:53,0.0
-14592,368,-1292,-2035,-2265,-2159,2024-01-24 10:33:53,0.0
-11632,1260,-948,-2384,-2406,-2319,2024-01-24 10:33:53,0.0
-9428,1752,-908,-3094,-292,-2834,2024-01-24 10:33:53,0.0
-8984,308,-60,-3713,1724,-3467,2024-01-24 10:33:53,0.0
-11236,-1080,1820,-3940,1886,-3601,2024-01-24 10:33:53,0.0
-11024,-1796,-864,-4853,2821,-2879,2024-01-24 10:33:53,0.0
-11412,-1240,-1228,-5776,3824,-2220,2024-01-24 10:33:53,0.0
-11448,-632,-72,-6232,3389,-1780,2024-01-24 10:33:53,0.0
-10836,-284,-200,-6555,3224,-1470,2024-01-24 10:33:53,0.0
-10952,-668,-344,-6977,3771,-1275,2024-01-24 10:33:53,0.0
-12224,-2104,-780,-7231,4765,-845,2024-01-24 10:33:54,0.0
-14308,-1628,32,-8048,4263,-120,2024-01-24 10:33:54,0.0
-15720,-1336,1256,-8574,2510,179,2024-01-24 10:33:54,0.0
-16384,-524,2012,-8977,12,506,2024-01-24 10:33:54,0.0
-15944,312,3324,-9225,-3177,926,2024-01-24 10:33:54,0.0
-14452,384,3080,-9417,-5408,1142,2024-01-24 10:33:54,0.0
-11500,-904,1152,-8922,-5628,914,2024-01-24 10:33:54,0.0
-10636,-1972,912,-7964,-3723,414,2024-01-24 10:33:54,0.0
-11768,-3952,1260,-7283,-1188,-122,2024-01-24 10:33:54,0.0
-13756,-5368,1080,-6611,872,-397,2024-01-24 10:33:54,0.0
-14208,-5448,1208,-5591,1736,-323,2024-01-24 10:33:54,0.0
-13860,-4796,1072,-4474,1855,277,2024-01-24 10:33:54,0.0
-12112,-4172,-816,-4204,2879,968,2024-01-24 10:33:54,0.0
-12596,-4544,-3300,-4449,7859,-616,2024-01-24 10:33:54,0.0
-18212,-744,-2932,-3489,7343,-2662,2024-01-24 10:33:54,0.0
-19444,1232,-2408,-3561,2928,-5265,2024-01-24 10:33:54,0.0
-17504,3360,-56,-3037,-3413,-5731,2024-01-24 10:33:54,0.0
-11644,-236,-1384,-2520,-4275,-5219,2024-01-24 10:33:54,0.0
-12364,-1344,-1940,-2950,-2290,-4915,2024-01-24 10:33:54,0.0
-15304,184,-3700,-3488,771,-1752,2024-01-24 10:33:54,0.0
-15228,3452,-2612,-5143,911,278,2024-01-24 10:33:54,0.0
-16020,3280,-2732,-5805,107,724,2024-01-24 10:33:54,0.0
-15788,1912,-2216,-6357,-1219,945,2024-01-24 10:33:54,0.0
-14928,2308,-1748,-6897,-1018,103,2024-01-24 10:33:54,0.0
-14556,3764,-2736,-7869,-966,-143,2024-01-24 10:33:54,0.0
-13100,5244,-4648,-9601,-492,225,2024-01-24 10:33:54,0.0
-12384,5708,-4748,-11054,232,288,2024-01-24 10:33:54,0.0
-12120,4372,-4484,-12507,225,-267,2024-01-24 10:33:54,0.0
-11616,2456,-3116,-13548,-273,-843,2024-01-24 10:33:54,0.0
-11224,1236,-2096,-14024,226,-1180,2024-01-24 10:33:54,0.0
-11628,1088,-1864,-14430,1392,-1173,2024-01-24 10:33:54,0.0
-12116,1236,-1820,-14922,2087,-924,2024-01-24 10:33:54,0.0
-13044,1372,-2080,-15577,1861,-746,2024-01-24 10:33:54,0.0
-12852,1552,-2396,-16291,1601,-743,2024-01-24 10:33:54,0.0
-13244,1820,-2464,-16827,1654,-916,2024-01-24 10:33:54,0.0
-13692,1052,-2556,-17431,1959,-1408,2024-01-24 10:33:54,0.0
-14720,244,-2684,-17822,1928,-1417,2024-01-24 10:33:54,0.0
-15072,-596,-2696,-18016,1350,-1105,2024-01-24 10:33:54,0.0
-14844,-888,-2620,-18326,636,-709,2024-01-24 10:33:54,
-14012,-768,-2564,-18750,-93,-459,2024-01-24 10:33:54,0.0
-12604,-376,-1840,-19131,-227,-407,2024-01-24 10:33:54,0.0
-12020,-236,-1956,-19164,318,-833,2024-01-24 10:33:54,0.0
-12392,-340,-1764,-19213,753,-1353,2024-01-24 10:33:54,0.0
-13208,-316,-1740,-19339,708,-1749,2024-01-24 10:33:54,0.0
-13996,60,-840,-19452,275,-1830,2024-01-24 10:33:54,0.0
-14736,220,-304,-19390,-356,-1727,2024-01-24 10:33:54,0.0
-15060,316,-296,-19274,-1229,-1291,2024-01-24 10:33:54,0.0
-14336,120,-696,-19299,-1701,-1077,2024-01-24 10:33:54,0.0
-14228,16,-132,-19001,-1909,-1074,2024-01-24 10:33:54,0.0
-13700,-180,-164,-18514,-2035,-1035,2024-01-24 10:33:54,0.0
-13672,-336,-384,-18026,-1744,-942,2024-01-24 10:33:54,0.0
-13700,-692,-60,-17541,-1248,-554,2024-01-24 10:33:54,0.0
-14296,-708,-64,-16790,-959,-158,2024-01-24 10:33:54,0.0
-14216,-776,244,-15799,-1029,296,2024-01-24 10:33:54,0.0
-14128,-1432,1652,-14499,-773,223,2024-01-24 10:33:54,0.0
-14400,-1708,2408,-12845,-1030,-35,2024-01-24 10:33:54,0.0
-14184,-2032,2256,-11322,-1604,-198,2024-01-24 10:33:54,0.0
-13660,-2056,2388,-9850,-1681,-300,2024-01-24 10:33:54,0.0
-13032,-1632,2724,-8276,-1314,-401,2024-01-24 10:33:54,0.0
-12980,-1704,3716,-6636,-1498,-704,2024-01-24 10:33:55,0.0
-13508,-780,4484,-4915,-1342,-775,2024-01-24 10:33:55,0.0
-13816,-352,4320,-3426,-586,-768,2024-01-24 10:33:55,0.0
-13844,224,3344,-2118,-18,-589,2024-01-24 10:33:55,0.0
-14016,752,2660,-1289,216,-470,2024-01-24 10:33:55,0.0
-13948,788,1968,-925,165,-523,2024-01-24 10:33:55,0.0
-13636,628,1996,-671,209,-632,2024-01-24 10:33:55,0.0
-13624,488,2280,-418,94,-950,2024-01-24 10:33:55,0.0
-13480,576,1960,-284,-412,-1280,2024-01-24 10:33:55,0.0
-13152,832,1700,-422,-1058,-1441,2024-01-24 10:33:55,0.0
-13000,1932,1384,-740,-1302,-1377,2024-01-24 10:33:55,0.0
-13348,3012,52,-1538,-920,-1012,2024-01-24 10:33:55,0.0
-13016,4056,-1216,-2733,24,-625,2024-01-24 10:33:55,0.0
-14048,3744,-380,-3881,677,-504,2024-01-24 10:33:55,0.0
-15116,3336,-716,-4954,534,-348,2024-01-24 10:33:55,0.0
-15876,2800,-1068,-6052,-121,-662,2024-01-24 10:33:55,0.0
-15400,1408,-1752,-6925,-1112,-933,2024-01-24 10:33:55,0.0
-14612,284,-2324,-7718,-1542,-1096,2024-01-24 10:33:55,0.0
-12828,-1760,-2372,-8069,-1226,-1252,2024-01-24 10:33:55,0.0
-10944,-2288,-1776,-7770,53,-1225,2024-01-24 10:33:55,0.0
-10884,-2824,-1500,-7530,2031,-1113,2024-01-24 10:33:55,0.0
-11760,-3056,-1476,-7569,3369,-1092,2024-01-24 10:33:55,0.0
-13968,-2896,-288,-7783,3678,-948,2024-01-24 10:33:55,0.0
-15028,-3148,288,-7783,3191,-1122,2024-01-24 10:33:55,0.0
-15144,-4588,1004,-7627,2485,-1631,2024-01-24 10:33:55,0.0
-15212,-4684,912,-7061,1618,-2141,2024-01-24 10:33:55,0.0
-14644,-3584,988,-6834,1505,-2228,2024-01-24 10:33:55,0.0
-13896,-2168,260,-6781,2066,-1935,2024-01-24 10:33:55,0.0
-14524,-1260,212,-6913,2108,-1436,2024-01-24 10:33:55,0.0
-14740,-720,180,-7533,776,-1077,2024-01-24 10:33:55,0.0
-14344,-884,996,-8022,-697,-903,2024-01-24 10:33:55,0.0
-14264,-416,1472,-8513,-1365,-580,2024-01-24 10:33:55,0.0
-13876,-292,1504,-9149,-1893,-505,2024-01-24 10:33:55,0.0
-13416,-508,616,-9370,-2191,-335,2024-01-24 10:33:55,0.0
-12488,-1012,292,-9327,-1572,-174,2024-01-24 10:33:55,0.0
-13032,-1364,424,-8971,-715,-11,2024-01-24 10:33:55,0.0
-13696,-1536,-268,-8650,-572,-59,2024-01-24 10:33:55,0.0
-14116,-2384,152,-8144,-1338,-108,2024-01-24 10:33:55,0.0
-13524,-3512,356,-7563,-1426,-161,2024-01-24 10:33:55,0.0
-13256,-3552,152,-7025,-938,-93,2024-01-24 10:33:55,0.0
-12912,-3376,716,-6315,-2,154,2024-01-24 10:33:55,0.0
-13468,-3652,968,-5509,307,142,2024-01-24 10:33:55,0.0
-13624,-3676,1184,-4533,376,13,2024-01-24 10:33:55,0.0
-13840,-3184,868,-3444,141,44,2024-01-24 10:33:55,0.0
-13804,-2548,656,-2506,-81,181,2024-01-24 10:33:55,0.0
-14540,-1660,796,-1674,-471,239,2024-01-24 10:33:55,0.0
-15124,-548,264,-1147,-923,405,2024-01-24 10:33:55,0.0
-14820,124,-704,-1113,-1628,486,2024-01-24 10:33:55,0.0
-14068,840,-80,-1587,-2153,444,2024-01-24 10:33:55,0.0
-12864,768,-192,-1872,-1629,263,2024-01-24 10:33:55,0.0
-12704,360,-344,-2212,-735,-37,2024-01-24 10:33:55,0.0
-12752,80,-176,-2433,-143,-350,2024-01-24 10:33:55,0.0
-13516,-304,60,-2726,59,-791,2024-01-24 10:33:55,0.0
-14380,-456,608,-3064,-342,-1030,2024-01-24 10:33:55,0.0
-14348,-356,528,-3284,-886,-1082,2024-01-24 10:33:55,0.0
-13688,-36,252,-3484,-1089,-1016,2024-01-24 10:33:55,0.0
-13436,308,208,-3773,-617,-826,2024-01-24 10:33:55,0.0
-13240,352,408,-4080,-57,-695,2024-01-24 10:33:55,0.0
-13356,408,668,-4372,385,-705,2024-01-24 10:33:55,0.0
-13580,592,1036,-4516,422,-770,2024-01-24 10:33:55,0.0
-13780,972,1100,-4674,114,-824,2024-01-24 10:33:56,0.0
-13800,416,788,-4850,-197,-935,2024-01-24 10:33:56,0.0
-13736,12,652,-5050,-371,-936,2024-01-24 10:33:56,0.0
-13860,-356,700,-5247,-306,-933,2024-01-24 10:33:56,0.0
-14012,-416,928,-5392,-232,-930,2024-01-24 10:33:56,0.0
-14460,60,1152,-5487,-595,-879,2024-01-24 10:33:56,0.0
-14352,500,1332,-5602,-893,-855,2024-01-24 10:33:56,0.0
-14124,448,1432,-5727,-1028,-782,2024-01-24 10:33:56,0.0
-13844,500,1408,-5742,-954,-712,2024-01-24 10:33:56,0.0
-13272,180,1224,-5930,-889,-674,2024-01-24 10:33:56,0.0
-12872,60,1804,-6080,-390,-713,2024-01-24 10:33:56,0.0
-13320,28,2016,-6201,-140,-838,2024-01-24 10:33:56,0.0
-14368,-248,1928,-6323,-258,-896,2024-01-24 10:33:56,0.0
-14680,-644,2244,-6462,-967,-794,2024-01-24 10:33:56,0.0
-14352,-664,2972,-6405,-1719,-601,2024-01-24 10:33:56,0.0
-13396,-756,3216,-6149,-1782,-560,2024-01-24 10:33:56,0.0
-12960,-724,2964,-5931,-1258,-559,2024-01-24 10:33:56,0.0
-12936,-388,2688,-5756,-384,-492,2024-01-24 10:33:56,0.0
-13488,240,2308,-5795,773,-265,2024-01-24 10:33:56,0.0
-13972,124,2456,-5911,1375,-129,2024-01-24 10:33:56,
