acceleration_x,acceleration_y,acceleration_z,gyroscope_x,gyroscope_y,gyroscope_z,timestamp,label
-0.8491,0.0085,0.1755,-0.3662,1.4801,-1.5488,2024-02-25 21:32:47.146,5.0
-0.8413,0.0154,0.1777,-2.0981,1.3885,-1.1826,2024-02-25 21:32:47.201,5.0
-0.8457,0.0032,0.1731,-2.655,1.6708,-0.8469,2024-02-25 21:32:47.262,5.0
-0.8455,-0.0054,0.1785,-2.6169,2.2125,-0.9613,2024-02-25 21:32:47.323,5.0
-0.8425,-0.01,0.1763,-1.9379,0.8926,-1.2131,2024-02-25 21:32:47.380,5.0
-0.8401,-0.0059,0.1802,-0.9613,1.3885,-1.3657,2024-02-25 21:32:47.439,5.0
-0.844,-0.0044,0.1797,-0.5798,1.8158,-1.709,2024-02-25 21:32:47.498,5.0
-0.8438,-0.0029,0.1689,-0.6104,0.679,-1.4572,2024-02-25 21:32:47.562,5.0
-0.8418,-0.0024,0.1743,-1.1444,1.9913,-1.4114,2024-02-25 21:32:47.612,5.0
-0.8474,-0.0015,0.178,-1.1597,1.0223,-1.1444,2024-02-25 21:32:47.672,5.0
-0.8408,-0.0081,0.1809,-1.297,1.4496,-1.3885,2024-02-25 21:32:47.732,5.0
-0.8484,-0.0029,0.1812,-0.7248,0.9766,-1.6022,2024-02-25 21:32:47.788,5.0
-0.8435,-0.0127,0.1755,-0.2823,0.5493,-0.9384,2024-02-25 21:32:47.848,5.0
-0.8408,0.0076,0.1733,-0.6409,2.9755,-1.8539,2024-02-25 21:32:47.904,5.0
-0.8455,0.0037,0.1841,-1.442,0.1755,-1.3962,2024-02-25 21:32:47.961,5.0
-0.8503,-0.0081,0.1711,-1.503,1.2894,-1.2436,2024-02-25 21:32:48.021,5.0
-0.844,-0.0027,0.175,-0.946,1.5106,-1.2894,2024-02-25 21:32:48.081,5.0
-0.8394,-0.0007,0.1729,-0.6027,0.9308,-1.2665,2024-02-25 21:32:48.139,5.0
-0.8425,-0.002,0.1663,-0.8316,1.3809,-1.442,2024-02-25 21:32:48.195,5.0
-0.8433,0.0027,0.1711,-1.6785,0.4501,-0.9155,2024-02-25 21:32:48.256,5.0
-0.8455,0.001,0.1804,-1.5717,1.5411,-1.3885,2024-02-25 21:32:48.311,5.0
-0.8423,-0.0095,0.1667,-1.6022,1.9379,-1.3428,2024-02-25 21:32:48.370,5.0
-0.8496,0.0012,0.1758,-1.0376,1.7014,-1.2665,2024-02-25 21:32:48.427,5.0
-0.8403,0.001,0.1743,-0.9689,2.243,-1.5106,2024-02-25 21:32:48.488,5.0
-0.8455,-0.0034,0.1743,-1.1292,1.0605,-1.2131,2024-02-25 21:32:48.549,5.0
-0.843,-0.0029,0.1726,-1.4648,3.3875,-1.2054,2024-02-25 21:32:48.606,5.0
-0.8445,-0.0071,0.1853,-1.8616,-0.5569,-1.1292,2024-02-25 21:32:48.660,5.0
-0.8364,-0.0027,0.178,-1.7929,1.4114,-1.091,2024-02-25 21:32:48.719,5.0
-0.8401,-0.0071,0.178,-1.1368,1.8158,-1.442,2024-02-25 21:32:48.778,5.0
-0.8484,0.0063,0.1807,-1.4343,0.3281,-1.8921,2024-02-25 21:32:48.837,5.0
-0.8496,-0.0068,0.1892,-1.5106,3.3188,-1.4343,2024-02-25 21:32:48.896,5.0
-0.8352,-0.0056,0.1814,-1.1749,0.3281,-1.1978,2024-02-25 21:32:48.956,5.0
-0.8481,-0.0061,0.1775,-0.7706,2.0676,-1.5793,2024-02-25 21:32:49.015,5.0
-0.8506,-0.0027,0.1746,-0.5875,1.8234,-1.6327,2024-02-25 21:32:49.073,5.0
-0.835,-0.0093,0.1675,-0.3204,1.2589,-1.4114,2024-02-25 21:32:49.131,5.0
-0.8435,-0.0042,0.1877,-0.1373,1.1902,-1.7014,2024-02-25 21:32:49.188,5.0
-0.8384,-0.0046,0.1714,-0.267,0.9155,-1.709,2024-02-25 21:32:49.249,5.0
-0.8452,-0.0012,0.1846,-1.236,0.5417,-1.4191,2024-02-25 21:32:49.308,5.0
-0.8499,0.0103,0.168,-1.8539,2.594,-1.5335,2024-02-25 21:32:49.367,5.0
-0.8374,0.0054,0.187,-1.7166,1.3046,-1.2817,2024-02-25 21:32:49.422,5.0
-0.845,-0.0034,0.1704,-1.8616,1.2817,-1.1978,2024-02-25 21:32:49.485,5.0
-0.8503,-0.0042,0.1809,-1.8158,1.2436,-1.358,2024-02-25 21:32:49.538,5.0
-0.8398,-0.0029,0.1765,-1.5259,1.5488,-1.2665,2024-02-25 21:32:49.599,5.0
-0.845,-0.0078,0.1782,-0.9308,1.6708,-1.6327,2024-02-25 21:32:49.661,5.0
-0.8457,-0.0007,0.1868,-0.679,-0.0458,-1.5259,2024-02-25 21:32:49.720,5.0
-0.8408,0.0002,0.177,-1.1368,0.5722,-1.1368,2024-02-25 21:32:49.774,5.0
-0.8398,-0.0017,0.1689,-1.442,1.5488,-1.297,2024-02-25 21:32:49.833,5.0
-0.8401,-0.0032,0.1855,-1.6632,0.8087,-1.2054,2024-02-25 21:32:49.891,5.0
-0.8438,-0.0017,0.1802,-1.6479,0.1373,-1.0681,2024-02-25 21:32:49.947,5.0
-0.8379,-0.0042,0.1919,-1.2207,-0.1297,-1.4191,2024-02-25 21:32:50.008,5.0
-0.8337,-0.0042,0.1726,-0.7935,0.9308,-1.4191,2024-02-25 21:32:50.068,5.0
-0.8401,-0.01,0.1865,-0.3357,1.4191,-1.4954,2024-02-25 21:32:50.128,5.0
-0.8491,0.0037,0.1731,-0.3967,0.4044,-1.5182,2024-02-25 21:32:50.181,5.0
-0.8376,0.0061,0.1929,-1.3199,0.7019,-1.3199,2024-02-25 21:32:50.240,5.0
-0.8447,0.0005,0.1875,-1.6098,3.1357,-1.358,2024-02-25 21:32:50.304,5.0
-0.8445,-0.0083,0.1838,-1.4877,0.3052,-1.2894,2024-02-25 21:32:50.360,5.0
-0.8486,0.0022,0.1841,-1.297,1.6022,-1.6556,2024-02-25 21:32:50.417,5.0
-0.8398,-0.009,0.1973,-1.503,2.1591,-1.5793,2024-02-25 21:32:50.478,5.0
-0.8416,-0.0044,0.1809,-1.7319,3.3722,-1.6785,2024-02-25 21:32:50.537,5.0
-0.8516,-0.0085,0.187,-1.6098,3.0289,-1.503,2024-02-25 21:32:50.594,5.0
-0.8442,-0.009,0.179,-1.152,5.4321,-1.5335,2024-02-25 21:32:50.648,5.0
-0.8396,-0.0039,0.1733,-1.6022,3.1281,-1.5564,2024-02-25 21:32:50.712,5.0
-0.8411,-0.0007,0.189,-2.0294,2.1133,-1.3885,2024-02-25 21:32:50.768,5.0
-0.8452,0.0007,0.1868,-1.5869,0.7935,-1.3046,2024-02-25 21:32:50.825,5.0
-0.8354,-0.0127,0.1794,-0.6943,3.0518,-1.1368,2024-02-25 21:32:50.886,5.0
-0.8413,-0.0027,0.1746,-0.4501,0.4501,-1.4343,2024-02-25 21:32:50.944,5.0
-0.8362,0.0085,0.1833,-0.8545,2.7237,-1.1749,2024-02-25 21:32:51.003,5.0
-0.8435,-0.0024,0.1802,-1.7319,2.594,-1.1597,2024-02-25 21:32:51.061,5.0
-0.8489,-0.0034,0.1692,-2.1439,0.5035,-0.9689,2024-02-25 21:32:51.123,5.0
-0.8425,-0.0156,0.1672,-1.6403,2.0294,-1.2054,2024-02-25 21:32:51.174,5.0
-0.8469,-0.0027,0.1785,-1.5182,2.9221,-1.4038,2024-02-25 21:32:51.235,5.0
-0.8398,-0.0078,0.1721,-2.0599,1.0834,-1.0147,2024-02-25 21:32:51.297,5.0
-0.8491,0.0,0.1658,-1.9455,2.1973,-1.1368,2024-02-25 21:32:51.354,5.0
-0.844,-0.0056,0.176,-1.9379,1.236,-1.4954,2024-02-25 21:32:51.412,5.0
-0.8445,0.0027,0.1729,-1.0757,1.297,-1.5106,2024-02-25 21:32:51.470,5.0
-0.8464,-0.001,0.1814,-1.3046,0.7401,-1.3657,2024-02-25 21:32:51.530,5.0
-0.8398,-0.0073,0.1667,-1.0605,1.6556,-1.442,2024-02-25 21:32:51.585,5.0
-0.8457,-0.0061,0.1721,-0.7629,1.9913,-1.6251,2024-02-25 21:32:51.644,5.0
-0.8442,-0.0029,0.1746,-0.9689,1.8387,-1.6022,2024-02-25 21:32:51.704,5.0
-0.8479,-0.0012,0.1729,-1.091,1.8387,-1.4267,2024-02-25 21:32:51.761,5.0
-0.8438,-0.0049,0.1714,-0.7095,1.5335,-1.3657,2024-02-25 21:32:51.822,5.0
-0.8416,0.0002,0.1707,-0.7553,0.4501,-1.6785,2024-02-25 21:32:51.879,5.0
-0.8447,-0.0024,0.1753,-0.6104,2.4796,-1.6632,2024-02-25 21:32:51.939,5.0
-0.8455,-0.0022,0.1729,-0.8621,0.4654,-1.4572,2024-02-25 21:32:51.997,5.0
-0.8462,-0.0034,0.1597,-1.1063,1.4954,-1.5182,2024-02-25 21:32:52.056,5.0
-0.8452,-0.0022,0.1702,-1.4496,0.1144,-1.4801,2024-02-25 21:32:52.118,5.0
-0.8391,-0.002,0.1765,-1.8997,1.4267,-1.2817,2024-02-25 21:32:52.175,5.0
-0.8445,-0.0061,0.166,-1.5182,2.3346,-1.709,2024-02-25 21:32:52.232,5.0
-0.844,-0.0037,0.1873,-1.2665,1.6556,-1.3962,2024-02-25 21:32:52.288,5.0
-0.8464,0.0005,0.1692,-1.4038,1.1749,-1.4114,2024-02-25 21:32:52.349,5.0
-0.8477,-0.0027,0.1819,-1.2436,1.5259,-1.2589,2024-02-25 21:32:52.404,5.0
-0.8398,-0.0022,0.1729,-1.2741,2.7618,-1.564,2024-02-25 21:32:52.462,5.0
-0.8435,-0.001,0.1772,-1.4801,2.4338,-1.2817,2024-02-25 21:32:52.524,5.0
-0.8398,-0.0105,0.1748,-1.5259,1.7929,-1.4267,2024-02-25 21:32:52.582,5.0
-0.8418,-0.0044,0.1665,-1.3351,2.1591,-1.5564,2024-02-25 21:32:52.637,5.0
-0.8418,-0.0061,0.1677,-0.9995,2.2507,-1.4954,2024-02-25 21:32:52.697,5.0
-0.8398,-0.0059,0.1672,-0.9613,1.0757,-1.6403,2024-02-25 21:32:52.755,5.0
-0.8435,-0.0015,0.1682,-1.2589,0.9384,-1.3962,2024-02-25 21:32:52.810,5.0
-0.8464,-0.0024,0.1641,-1.6479,1.2207,-1.4038,2024-02-25 21:32:52.871,5.0
-0.8389,-0.0076,0.1667,-1.6861,1.3351,-1.2665,2024-02-25 21:32:52.927,5.0
-0.8455,-0.0076,0.1658,-1.3733,1.8997,-1.564,2024-02-25 21:32:52.985,5.0
-0.8364,-0.0051,0.1685,-1.0605,2.7542,-1.2436,2024-02-25 21:32:53.043,5.0
-0.8477,-0.0056,0.1633,-0.9842,2.6474,-1.2512,2024-02-25 21:32:53.101,5.0
-0.8486,-0.0103,0.1655,-1.091,0.946,-1.4801,2024-02-25 21:32:53.162,5.0
-0.8423,-0.0024,0.1599,-1.4572,1.1673,-1.4725,2024-02-25 21:32:53.216,5.0
-0.853,-0.0078,0.1641,-1.152,1.4801,-1.1978,2024-02-25 21:32:53.275,5.0
-0.8457,0.0022,0.1702,-1.1826,1.0834,-1.4114,2024-02-25 21:32:53.338,5.0
-0.8508,-0.0042,0.1624,-1.0834,1.1749,-1.442,2024-02-25 21:32:53.395,5.0
-0.8438,-0.0022,0.1755,-0.9613,1.8005,-1.3809,2024-02-25 21:32:53.449,5.0
-0.8428,-0.0068,0.1692,-0.7324,1.2665,-1.2894,2024-02-25 21:32:53.510,5.0
-0.8496,-0.002,0.1648,-1.236,2.1667,-1.442,2024-02-25 21:32:53.567,5.0
-0.8484,-0.0083,0.175,-1.0681,1.4038,-1.4114,2024-02-25 21:32:53.626,5.0
-0.8403,-0.0103,0.1772,-1.0834,0.9537,-1.2131,2024-02-25 21:32:53.683,5.0
-0.8445,0.0005,0.1689,-1.0376,1.3962,-1.4801,2024-02-25 21:32:53.744,5.0
-0.8445,-0.0051,0.1667,-1.5259,0.9995,-1.297,2024-02-25 21:32:53.799,5.0
-0.844,-0.009,0.1641,-1.6251,0.473,-1.236,2024-02-25 21:32:53.859,5.0
-0.8428,-0.0112,0.1643,-1.3733,1.2436,-1.4496,2024-02-25 21:32:53.917,5.0
-0.843,-0.0054,0.1619,-1.2665,0.6638,-1.3657,2024-02-25 21:32:53.974,5.0
-0.8384,-0.0063,0.1609,-1.1063,2.1439,-1.5869,2024-02-25 21:32:54.031,5.0
-0.8477,-0.0073,0.1589,-1.0147,1.6022,-1.3885,2024-02-25 21:32:54.090,5.0
-0.8428,-0.0042,0.1614,-1.3428,-0.1144,-0.9384,2024-02-25 21:32:54.148,5.0
-0.8401,-0.01,0.165,-1.3046,1.2131,-1.3428,2024-02-25 21:32:54.208,5.0
-0.8374,0.0017,0.1531,-1.0452,1.1597,-1.8234,2024-02-25 21:32:54.268,5.0
-0.8418,-0.0034,0.167,-1.0681,1.8005,-1.6479,2024-02-25 21:32:54.324,5.0
-0.8506,-0.0005,0.1787,-1.709,1.1978,-1.1978,2024-02-25 21:32:54.383,5.0
-0.843,-0.0012,0.1736,-2.3575,0.351,-1.1597,2024-02-25 21:32:54.444,5.0
-0.8506,-0.0051,0.1821,-2.4033,-0.412,-0.6485,2024-02-25 21:32:54.499,5.0
-0.8379,-0.0117,0.1733,-1.1749,0.2365,-1.1902,2024-02-25 21:32:54.560,5.0
-0.8359,-0.01,0.168,0.0381,2.2354,-1.8158,2024-02-25 21:32:54.619,5.0
-0.8433,0.0071,0.179,-0.3128,0.9689,-1.6861,2024-02-25 21:32:54.677,5.0
-0.8435,0.0029,0.1836,-0.9995,0.9003,-1.3275,2024-02-25 21:32:54.732,5.0
-0.8396,-0.0034,0.1731,-2.121,0.3815,-1.1368,2024-02-25 21:32:54.789,5.0
-0.8435,-0.0027,0.1897,-2.0065,1.5945,-1.091,2024-02-25 21:32:54.851,5.0
-0.8584,-0.0032,0.1792,-2.1133,1.8539,-1.2512,2024-02-25 21:32:54.911,5.0
-0.8833,-0.0637,0.1716,-1.4191,2.8458,-0.8469,2024-02-25 21:32:54.968,5.0
-0.842,0.0454,0.1975,-0.7095,5.3558,-3.6011,2024-02-25 21:32:55.022,5.0
-0.8269,-0.0049,0.1716,-1.5106,-1.0071,-0.5264,2024-02-25 21:32:55.086,5.0
-0.854,-0.0076,0.1692,0.5417,1.6403,-1.77,2024-02-25 21:32:55.139,5.0
-0.8457,0.002,0.1682,-0.1984,1.0452,-1.3428,2024-02-25 21:32:55.197,5.0
-0.8352,0.0015,0.1821,0.4425,2.1362,-1.8463,2024-02-25 21:32:55.257,5.0
-0.8552,-0.0051,0.1765,-1.7471,1.3123,-1.091,2024-02-25 21:32:55.314,5.0
-0.8254,-0.0081,0.1692,-1.4725,1.1902,-1.2131,2024-02-25 21:32:55.374,5.0
-0.8469,-0.0027,0.1804,-1.6937,3.3569,-1.2054,2024-02-25 21:32:55.434,5.0
-0.8481,-0.0078,0.1619,-2.4185,-0.8392,-1.2665,2024-02-25 21:32:55.490,5.0
-0.854,-0.0054,0.1697,-1.0452,-0.5035,-1.3046,2024-02-25 21:32:55.547,5.0
-0.8362,-0.0049,0.1672,-1.2512,0.9537,-1.6937,2024-02-25 21:32:55.609,5.0
-0.8472,0.0059,0.1746,-1.6251,2.1286,-0.5798,2024-02-25 21:32:55.664,5.0
-0.8447,-0.0061,0.1775,-2.1667,-0.5569,-0.8163,2024-02-25 21:32:55.725,5.0
-0.842,0.0007,0.178,-2.0676,2.8305,-1.5488,2024-02-25 21:32:55.780,5.0
-0.8445,-0.0032,0.1709,-1.7014,3.479,-1.5717,2024-02-25 21:32:55.839,5.0
-0.8472,0.0039,0.1821,-1.9531,4.6005,-1.4801,2024-02-25 21:32:55.900,5.0
-0.8445,-0.0015,0.176,-0.7935,3.9749,-1.358,2024-02-25 21:32:55.952,5.0
-0.8555,0.001,0.1638,-0.8545,5.7907,-2.1515,2024-02-25 21:32:56.013,5.0
-0.8489,-0.0085,0.158,-0.6714,3.0594,-1.6785,2024-02-25 21:32:56.072,5.0
-0.8484,-0.0071,0.1536,-0.7019,2.121,-0.5951,2024-02-25 21:32:56.129,5.0
-0.8394,-0.0034,0.1582,-1.0376,2.1973,-1.0071,2024-02-25 21:32:56.188,5.0
-0.8452,-0.0061,0.1577,-1.5259,4.0817,-1.2665,2024-02-25 21:32:56.245,5.0
-0.8445,0.0032,0.1553,-1.9455,3.7613,-1.4191,2024-02-25 21:32:56.302,5.0
-0.8401,-0.0061,0.1648,-1.8539,2.6474,-1.236,2024-02-25 21:32:56.361,5.0
-0.8459,-0.0095,0.1538,-1.0376,3.7994,-1.4114,2024-02-25 21:32:56.418,5.0
-0.8464,-0.0029,0.1533,-1.4801,-1.3428,-1.152,2024-02-25 21:32:56.478,5.0
-0.8469,-0.0107,0.1382,-1.1368,2.0981,-1.1826,2024-02-25 21:32:56.535,5.0
-0.8418,-0.0027,0.1577,-1.1063,2.5558,-1.1444,2024-02-25 21:32:56.594,5.0
-0.845,-0.0068,0.1482,-1.8234,3.418,-1.2741,2024-02-25 21:32:56.650,5.0
-0.8467,-0.0081,0.1475,-1.2436,7.0572,-1.2894,2024-02-25 21:32:56.709,5.0
-0.855,0.0024,0.144,-1.6937,-0.5951,-1.358,2024-02-25 21:32:56.769,5.0
-0.8477,0.0042,0.1394,-2.2812,0.5569,-1.3275,2024-02-25 21:32:56.824,5.0
-0.8411,-0.0032,0.1475,-2.3041,2.3193,-1.2283,2024-02-25 21:32:56.885,5.0
-0.8401,-0.0054,0.1357,-2.1896,2.0676,-1.3962,2024-02-25 21:32:56.942,5.0
-0.8489,0.0042,0.1475,-1.915,2.1057,-1.3428,2024-02-25 21:32:57.001,5.0
-0.8477,-0.0061,0.1394,-1.4114,2.4338,-1.3428,2024-02-25 21:32:57.060,5.0
-0.8467,-0.001,0.1396,-0.8926,1.5793,-1.6937,2024-02-25 21:32:57.118,5.0
-0.8503,-0.0024,0.1462,-0.9003,3.2654,-1.6403,2024-02-25 21:32:57.179,5.0
-0.8474,0.0032,0.1418,-1.1673,0.0229,-1.2894,2024-02-25 21:32:57.237,5.0
-0.8384,0.0,0.1465,-1.1826,2.9907,-1.6022,2024-02-25 21:32:57.293,5.0
-0.8555,-0.0054,0.1362,-1.5488,1.0147,-1.503,2024-02-25 21:32:57.352,5.0
-0.845,-0.0007,0.145,-1.1597,1.7853,-1.1215,2024-02-25 21:32:57.411,5.0
-0.8408,-0.0088,0.1418,-0.8545,-0.4807,-1.5945,2024-02-25 21:32:57.470,5.0
-0.8508,-0.0073,0.137,-1.0986,1.709,-1.7776,2024-02-25 21:32:57.528,5.0
-0.855,-0.0007,0.1504,-1.1444,0.5264,-1.3123,2024-02-25 21:32:57.586,5.0
-0.8264,-0.011,0.1289,-1.091,1.4954,-1.3733,2024-02-25 21:32:57.643,5.0
-0.8511,0.0015,0.1467,-0.6256,2.2507,-1.8921,2024-02-25 21:32:57.702,5.0
-0.8323,-0.0051,0.1379,-0.824,0.4578,-0.9766,2024-02-25 21:32:57.761,5.0
-0.8464,-0.0046,0.1443,-1.1597,0.9155,-1.8311,2024-02-25 21:32:57.819,5.0
-0.8474,-0.0022,0.1401,-0.9308,2.3041,-1.7395,2024-02-25 21:32:57.880,5.0
-0.8381,-0.0037,0.1538,-0.6256,-0.9537,-0.9384,2024-02-25 21:32:57.935,5.0
-0.8462,0.0,0.1384,-1.1902,1.8997,-1.1063,2024-02-25 21:32:57.995,5.0
-0.8396,-0.0002,0.1445,-2.0142,-0.0458,-1.1368,2024-02-25 21:32:58.055,5.0
-0.8406,-0.0056,0.1443,-2.7237,2.2125,-1.1139,2024-02-25 21:32:58.111,5.0
-0.8484,-0.0083,0.1416,-2.4261,0.0763,-1.2207,2024-02-25 21:32:58.168,5.0
-0.8486,-0.0117,0.1538,-1.4877,0.9003,-1.1978,2024-02-25 21:32:58.224,5.0
-0.8418,-0.0029,0.1382,-0.5569,1.2131,-1.7242,2024-02-25 21:32:58.286,5.0
-0.8464,0.002,0.1392,-0.8392,0.2975,-1.4572,2024-02-25 21:32:58.344,5.0
-0.8408,-0.0042,0.144,-1.3809,1.6174,-1.0834,2024-02-25 21:32:58.404,5.0
-0.8486,-0.0032,0.1536,-1.709,1.3733,-1.03,2024-02-25 21:32:58.460,5.0
-0.8481,-0.0024,0.145,-0.9842,1.1597,-1.5106,2024-02-25 21:32:58.518,5.0
-0.8379,-0.0034,0.1509,-0.1831,-0.2747,0.1221,2024-02-25 21:32:58.574,5.0
-0.8445,-0.0044,0.1504,-0.9079,1.6937,-2.1667,2024-02-25 21:32:58.632,5.0
-0.8396,0.002,0.1516,-0.8698,3.0136,-1.7242,2024-02-25 21:32:58.689,5.0
-0.8425,-0.0085,0.1472,-1.1215,-0.2594,-0.8316,2024-02-25 21:32:58.749,5.0
-0.8469,-0.0044,0.1594,-0.6943,2.3346,-1.2131,2024-02-25 21:32:58.808,5.0
-0.8472,0.0063,0.1484,-1.7319,-1.0834,-1.3046,2024-02-25 21:32:58.867,5.0
-0.8408,0.0029,0.157,-2.1515,1.4877,-0.9918,2024-02-25 21:32:58.925,5.0
-0.8564,-0.0034,0.1499,-2.0142,1.0986,-1.3351,2024-02-25 21:32:58.980,5.0
-0.8479,-0.0024,0.1533,-1.5411,0.7553,-1.2817,2024-02-25 21:32:59.041,5.0
-0.8513,-0.0022,0.1531,-1.1902,1.8158,-1.2283,2024-02-25 21:32:59.101,5.0
-0.8433,-0.0015,0.1426,-0.9232,1.5335,-1.503,2024-02-25 21:32:59.162,5.0
-0.8416,0.0012,0.1521,-1.1826,1.3275,-1.6479,2024-02-25 21:32:59.218,5.0
-0.8518,-0.0027,0.1604,-1.5106,0.2213,-1.0681,2024-02-25 21:32:59.274,5.0
-0.8442,-0.002,0.1509,-1.6403,-0.351,-1.4114,2024-02-25 21:32:59.349,5.0
-0.8467,-0.0046,0.1589,-1.2894,1.6937,-1.2665,2024-02-25 21:32:59.390,5.0
-0.8425,0.0,0.1514,-1.3962,1.5564,-1.236,2024-02-25 21:32:59.453,5.0
-0.845,-0.0034,0.1509,-1.2741,2.3956,-1.1978,2024-02-25 21:32:59.509,5.0
-0.8433,0.0042,0.1501,-1.1902,1.7471,-1.4191,2024-02-25 21:32:59.567,5.0
-0.8521,0.0029,0.1562,-1.7776,0.0839,-1.1139,2024-02-25 21:32:59.628,5.0
-0.8462,-0.0027,0.1536,-1.5411,1.0223,-1.1444,2024-02-25 21:32:59.682,5.0
-0.8435,-0.002,0.1624,-1.442,2.0142,-1.3504,2024-02-25 21:32:59.738,5.0
-0.8391,-0.0022,0.1526,-1.4267,-0.1297,-1.358,2024-02-25 21:32:59.797,5.0
-0.8469,-0.0085,0.1523,-1.7624,-0.8926,-1.091,2024-02-25 21:32:59.859,5.0
-0.8484,-0.0044,0.1616,-1.6403,-0.0305,-1.091,2024-02-25 21:32:59.915,5.0
-0.8464,-0.0044,0.166,-1.091,-0.7095,-1.3657,2024-02-25 21:32:59.975,5.0
-0.8418,-0.0032,0.1653,-0.6409,-0.7248,-1.1368,2024-02-25 21:33:00.033,5.0
-0.8411,0.002,0.165,-0.7477,0.4807,-1.3428,2024-02-25 21:33:00.095,5.0
-0.8486,-0.0061,0.1594,-1.2665,-0.3967,-1.2589,2024-02-25 21:33:00.150,5.0
-0.8474,0.0017,0.1743,-1.709,0.7401,-1.2436,2024-02-25 21:33:00.209,5.0
-0.8435,-0.0024,0.1638,-1.6708,1.2283,-1.1292,2024-02-25 21:33:00.266,5.0
-0.8364,0.0005,0.1733,-1.3809,0.4196,-1.2665,2024-02-25 21:33:00.328,5.0
-0.8442,0.0017,0.1658,-1.4038,0.7401,-1.4648,2024-02-25 21:33:00.384,5.0
-0.835,0.0,0.1604,-1.5488,1.8158,-1.5869,2024-02-25 21:33:00.440,5.0
-0.8472,0.0007,0.1704,-1.4114,0.9995,-1.5717,2024-02-25 21:33:00.500,5.0
-0.8479,0.0073,0.1689,-1.915,0.1907,-1.3199,2024-02-25 21:33:00.559,5.0
-0.8372,-0.0059,0.176,-1.6708,1.4725,-1.1368,2024-02-25 21:33:00.617,5.0
-0.8457,-0.0027,0.1721,-0.9384,1.1673,-1.4038,2024-02-25 21:33:00.675,5.0
-0.8499,0.002,0.1646,-0.5264,1.6632,-1.6327,2024-02-25 21:33:00.729,5.0
-0.8398,0.0056,0.1731,-0.5188,0.1602,-1.1292,2024-02-25 21:33:00.791,5.0
-0.8535,0.0022,0.1797,-1.3809,-0.3738,-1.4038,2024-02-25 21:33:00.846,5.0
-0.845,-0.0005,0.1721,-1.3733,-0.1678,-1.1673,2024-02-25 21:33:00.903,5.0
-0.8394,-0.0093,0.1638,-1.3275,0.2518,-1.4191,2024-02-25 21:33:00.965,5.0
-0.845,0.0029,0.1631,-0.9918,0.9537,-1.4343,2024-02-25 21:33:01.024,5.0
-0.8433,0.0015,0.1702,-1.1292,1.1139,-1.5717,2024-02-25 21:33:01.081,5.0
-0.8447,0.0022,0.176,-1.4877,1.3046,-1.5182,2024-02-25 21:33:01.142,5.0
-0.8394,0.001,0.1787,-1.5488,1.5945,-1.4648,2024-02-25 21:33:01.200,5.0
-0.8464,0.0044,0.1807,-1.1826,1.4267,-1.6251,2024-02-25 21:33:01.257,5.0
-0.8423,-0.0056,0.1807,-0.9995,1.5717,-1.3733,2024-02-25 21:33:01.314,5.0
-0.8425,-0.0054,0.1836,-0.8545,0.6561,-1.5106,2024-02-25 21:33:01.373,5.0
-0.8396,-0.0042,0.1841,-1.3733,1.1444,-1.5488,2024-02-25 21:33:01.432,5.0
-0.8433,-0.0068,0.177,-1.3809,0.3052,-1.2741,2024-02-25 21:33:01.492,5.0
-0.843,-0.002,0.179,-1.3962,1.0681,-1.2817,2024-02-25 21:33:01.552,5.0
-0.8494,-0.0007,0.1848,-1.3962,0.9537,-1.152,2024-02-25 21:33:01.610,5.0
-0.8433,0.0007,0.1772,-1.1292,0.2365,-1.2512,2024-02-25 21:33:01.670,5.0
-0.8452,-0.0076,0.1777,-0.9155,0.4959,-1.2512,2024-02-25 21:33:01.723,5.0
-0.8455,-0.0103,0.1733,-0.6332,0.4272,-1.5106,2024-02-25 21:33:01.784,5.0
-0.8457,-0.0042,0.1814,-0.9613,-0.0534,-0.8087,2024-02-25 21:33:01.845,5.0
-0.8442,0.0046,0.186,-1.358,0.8163,-1.7014,2024-02-25 21:33:01.902,5.0
-0.8455,0.0068,0.1841,-1.5793,0.9689,-1.2512,2024-02-25 21:33:01.965,5.0
-0.844,-0.0066,0.1824,-1.4496,0.5188,-1.1444,2024-02-25 21:33:02.019,5.0
-0.8416,0.001,0.1838,-1.0986,1.2665,-1.3275,2024-02-25 21:33:02.081,5.0
-0.8416,0.001,0.1807,-1.0529,0.6943,-1.3275,2024-02-25 21:33:02.139,5.0
-0.8457,0.0046,0.187,-1.2589,2.1667,-1.4725,2024-02-25 21:33:02.200,5.0
-0.8359,-0.001,0.1836,-1.4648,0.4272,-1.2665,2024-02-25 21:33:02.251,5.0
-0.8521,-0.0032,0.1782,-0.9232,0.6866,-0.7248,2024-02-25 21:33:02.312,5.0
-0.845,-0.0007,0.1863,-1.5335,0.2747,-1.5945,2024-02-25 21:33:02.372,5.0
-0.8328,-0.002,0.188,-1.1063,1.6022,-1.3733,2024-02-25 21:33:02.427,5.0
-0.8472,-0.002,0.188,-1.2665,0.6943,-1.152,2024-02-25 21:33:02.490,5.0
-0.8408,-0.0012,0.1899,-1.5869,1.8921,-1.3199,2024-02-25 21:33:02.541,5.0
-0.842,0.0046,0.1941,-2.0981,1.1978,-1.3504,2024-02-25 21:33:02.602,5.0
-0.8428,-0.0017,0.1909,-1.8082,1.3046,-1.1902,2024-02-25 21:33:02.663,5.0
-0.844,-0.0049,0.1907,-1.3428,0.7858,-0.8698,2024-02-25 21:33:02.724,5.0
-0.8445,0.0054,0.1848,-0.9537,1.3733,-1.6632,2024-02-25 21:33:02.779,5.0
-0.845,-0.0007,0.188,-1.503,0.3662,-1.1673,2024-02-25 21:33:02.841,5.0
-0.8381,-0.0078,0.1948,-1.9379,1.976,-1.3275,2024-02-25 21:33:02.899,5.0
-0.8423,-0.0049,0.1953,-1.7548,1.5945,-1.2741,2024-02-25 21:33:02.955,5.0
-0.843,0.0049,0.1875,-1.4191,1.7242,-1.5182,2024-02-25 21:33:03.010,5.0
-0.845,0.0002,0.1895,-1.2054,1.1902,-1.5488,2024-02-25 21:33:03.076,5.0
-0.8423,0.0032,0.1902,-1.503,1.8082,-1.1749,2024-02-25 21:33:03.133,5.0
-0.8435,-0.0032,0.1846,-1.3428,0.8698,-0.9232,2024-02-25 21:33:03.190,5.0
-0.8413,0.0039,0.1895,-0.9232,2.0599,-1.6098,2024-02-25 21:33:03.267,5.0
-0.8484,0.0015,0.1895,-1.2894,1.0223,-1.358,2024-02-25 21:33:03.308,5.0
-0.8506,-0.0007,0.1848,-1.2054,1.3809,-1.4648,2024-02-25 21:33:03.365,5.0
-0.8423,0.0029,0.199,-1.4877,2.0676,-1.1215,2024-02-25 21:33:03.423,5.0
-0.8428,0.0044,0.1963,-1.5793,1.4572,-1.2894,2024-02-25 21:33:03.482,5.0
-0.8384,-0.0059,0.1902,-1.9302,1.4038,-1.0757,2024-02-25 21:33:03.542,5.0
-0.8435,-0.0034,0.1821,-1.4572,1.503,-1.5106,2024-02-25 21:33:03.602,5.0
-0.8394,0.0005,0.199,-1.3199,1.4877,-1.3657,2024-02-25 21:33:03.659,5.0
-0.8428,-0.0078,0.187,-1.3046,1.3275,-0.9689,2024-02-25 21:33:03.720,5.0
-0.8445,0.0061,0.1929,-1.1215,2.2964,-1.8539,2024-02-25 21:33:03.776,5.0
-0.8462,0.0012,0.1985,-1.1444,0.5722,-1.1673,2024-02-25 21:33:03.832,5.0
-0.8491,-0.0044,0.187,-1.3809,0.6943,-1.3428,2024-02-25 21:33:03.891,5.0
-0.8428,-0.0007,0.1948,-1.3046,1.1444,-1.3199,2024-02-25 21:33:03.952,5.0
-0.8484,0.0022,0.1887,-1.7471,0.2213,-1.2207,2024-02-25 21:33:04.010,5.0
-0.8411,-0.0063,0.1958,-2.5711,-2.1133,-1.091,2024-02-25 21:33:04.074,5.0
-0.845,0.0054,0.2014,-2.5406,-0.1144,-0.6027,2024-02-25 21:33:04.135,5.0
-0.8367,-0.0039,0.2012,-2.0523,-0.2441,-0.946,2024-02-25 21:33:04.185,5.0
-0.8435,-0.0015,0.199,-1.1902,0.0839,-1.2283,2024-02-25 21:33:04.246,5.0
-0.8457,0.0049,0.1921,-1.0376,1.5945,-1.2741,2024-02-25 21:33:04.301,5.0
-0.8394,-0.001,0.2048,-1.1597,0.5722,-1.1368,2024-02-25 21:33:04.365,5.0
-0.8391,0.0002,0.2014,-1.2589,1.4954,-1.2512,2024-02-25 21:33:04.420,5.0
-0.8459,0.0042,0.1992,-1.5259,2.1133,-1.2741,2024-02-25 21:33:04.478,5.0
-0.8506,-0.0002,0.2002,-1.3428,0.3052,-0.9766,2024-02-25 21:33:04.542,5.0
-0.8391,0.0002,0.207,-1.2512,-1.3275,-1.1368,2024-02-25 21:33:04.595,5.0
-0.8379,0.0015,0.2051,-1.2283,0.9308,-1.2894,2024-02-25 21:33:04.658,5.0
-0.8372,0.0037,0.2017,-1.503,1.1444,-1.2131,2024-02-25 21:33:04.711,5.0
-0.8374,-0.0017,0.2104,-1.4954,0.2975,-1.0147,2024-02-25 21:33:04.774,5.0
-0.8442,0.002,0.2178,-1.1749,1.6632,-1.1978,2024-02-25 21:33:04.830,5.0
-0.8413,0.0034,0.2134,-1.6098,2.0599,-1.3657,2024-02-25 21:33:04.890,5.0
-0.8447,0.0051,0.2046,-1.7776,0.4425,-1.3657,2024-02-25 21:33:04.946,5.0
-0.8303,0.001,0.2036,-1.9455,1.9989,-1.1978,2024-02-25 21:33:05.006,5.0
-0.8396,0.0022,0.2026,-1.3962,2.4033,-1.0452,2024-02-25 21:33:05.061,5.0
-0.8506,0.0005,0.207,-1.2436,2.9755,-1.6098,2024-02-25 21:33:05.121,5.0
-0.8347,0.0056,0.1985,-1.0834,3.0746,-1.5717,2024-02-25 21:33:05.181,5.0
-0.8489,-0.0005,0.1987,-1.1749,3.7231,-1.4496,2024-02-25 21:33:05.244,5.0
-0.8452,0.0,0.1951,-1.03,3.2959,-1.3275,2024-02-25 21:33:05.300,5.0
-0.8403,-0.0012,0.1921,-1.3504,3.418,-1.5411,2024-02-25 21:33:05.357,5.0
-0.832,0.0044,0.199,-1.3962,4.3945,-1.3657,2024-02-25 21:33:05.414,5.0
-0.8428,0.0007,0.1975,-1.5182,3.8681,-1.4343,2024-02-25 21:33:05.472,5.0
-0.8447,-0.0068,0.186,-1.2589,2.6321,-1.4496,2024-02-25 21:33:05.532,5.0
-0.8379,0.0049,0.1858,-1.1444,3.9215,-1.5945,2024-02-25 21:33:05.588,5.0
-0.8398,0.0007,0.186,-1.2131,3.5629,-1.4191,2024-02-25 21:33:05.651,5.0
-0.8433,0.0066,0.1895,-1.5259,4.1962,-1.2817,2024-02-25 21:33:05.708,5.0
-0.8408,0.0002,0.1768,-1.1292,3.5095,-1.3428,2024-02-25 21:33:05.772,5.0
-0.8401,0.0012,0.1799,-1.3428,4.4708,-1.4191,2024-02-25 21:33:05.822,5.0
-0.8401,-0.0044,0.1704,-1.3275,4.0131,-1.2741,2024-02-25 21:33:05.884,5.0
-0.8398,-0.0015,0.1628,-1.2131,3.7384,-1.4038,2024-02-25 21:33:05.940,5.0
-0.8481,0.001,0.1733,-1.4038,3.3493,-1.2054,2024-02-25 21:33:06.000,5.0
-0.8435,0.0024,0.166,-1.1292,4.1046,-1.3809,2024-02-25 21:33:06.059,5.0
-0.8438,-0.0002,0.1589,-0.946,5.0583,-1.8387,2024-02-25 21:33:06.119,5.0
-0.8479,-0.0037,0.1592,-0.4044,4.4327,-1.8539,2024-02-25 21:33:06.177,5.0
-0.8401,0.0022,0.1526,-0.5493,3.6163,-1.4496,2024-02-25 21:33:06.233,5.0
-0.8452,0.0073,0.1606,-1.236,4.6768,-1.3428,2024-02-25 21:33:06.294,5.0
-0.8525,-0.0024,0.1528,-1.4725,3.7231,-0.8774,2024-02-25 21:33:06.350,5.0
-0.8445,0.0,0.1536,-2.0828,3.9902,-1.5945,2024-02-25 21:33:06.409,5.0
-0.8413,0.0046,0.1475,-1.7776,3.5629,-1.3123,2024-02-25 21:33:06.466,5.0
-0.8452,0.0051,0.1445,-2.0676,2.8915,-1.2512,2024-02-25 21:33:06.528,5.0
-0.8457,0.0081,0.1445,-1.8768,2.5635,-1.6861,2024-02-25 21:33:06.583,5.0
-0.844,-0.0002,0.1436,-1.915,0.8163,-1.2207,2024-02-25 21:33:06.641,5.0
-0.842,-0.0051,0.1418,-1.7242,1.503,-1.5259,2024-02-25 21:33:06.702,5.0
-0.8445,0.0,0.1343,-1.6556,1.8921,-1.3885,2024-02-25 21:33:06.764,5.0
-0.844,0.0015,0.1331,-1.4877,0.1526,-1.5411,2024-02-25 21:33:06.816,5.0
-0.8496,0.0024,0.1577,-1.3199,0.7477,-1.4954,2024-02-25 21:33:06.875,5.0
-0.8433,0.0,0.145,-1.3351,-0.3052,-1.2512,2024-02-25 21:33:06.938,5.0
-0.8347,-0.0022,0.1458,-1.3428,0.9918,-1.5106,2024-02-25 21:33:06.998,5.0
-0.8401,0.0051,0.1477,-1.5182,1.2207,-1.3657,2024-02-25 21:33:07.053,5.0
-0.8435,0.0024,0.1489,-1.4877,0.473,-1.236,2024-02-25 21:33:07.114,5.0
-0.8445,0.0115,0.1536,-1.3657,2.0599,-1.503,2024-02-25 21:33:07.175,5.0
-0.8403,-0.0032,0.1538,-1.3885,4.715,-1.2741,2024-02-25 21:33:07.230,5.0
-0.8376,0.0059,0.145,-1.3657,-0.6638,-1.152,2024-02-25 21:33:07.286,5.0
-0.855,-0.01,0.1392,-1.4343,1.7014,-1.2741,2024-02-25 21:33:07.348,5.0
-0.8435,-0.0066,0.1428,-1.8997,-0.6409,-1.1597,2024-02-25 21:33:07.405,5.0
-0.8481,0.002,0.1392,-1.9226,0.9079,-1.3123,2024-02-25 21:33:07.462,5.0
-0.8408,-0.0007,0.1482,-2.1362,2.0294,-1.1978,2024-02-25 21:33:07.527,5.0
-0.8508,-0.0037,0.157,-1.8158,-0.1373,-1.3809,2024-02-25 21:33:07.581,5.0
-0.843,-0.0015,0.1455,-1.0986,1.7395,-1.5488,2024-02-25 21:33:07.641,5.0
-0.8499,-0.0046,0.1335,-1.2131,0.7248,-1.4267,2024-02-25 21:33:07.696,5.0
-0.8474,-0.0002,0.1492,-1.6327,1.2054,-1.4038,2024-02-25 21:33:07.755,5.0
-0.845,-0.002,0.1477,-1.9684,0.1526,-1.2512,2024-02-25 21:33:07.813,5.0
-0.8411,-0.0032,0.1514,-1.6937,1.3962,-1.5793,2024-02-25 21:33:07.872,5.0
-0.8401,-0.0073,0.155,-1.4191,0.8774,-1.3504,2024-02-25 21:33:07.930,5.0
-0.8438,-0.001,0.1528,-0.9003,0.6256,-1.4954,2024-02-25 21:33:07.989,5.0
-0.8447,-0.0002,0.1428,-0.3738,1.236,-1.4648,2024-02-25 21:33:08.049,5.0
-0.844,-0.0005,0.1458,-0.8392,1.2589,-1.5259,2024-02-25 21:33:08.104,5.0
-0.8396,0.001,0.1536,-0.8698,1.2283,-1.236,2024-02-25 21:33:08.166,5.0
-0.8462,0.0046,0.1602,-1.3657,0.6943,-1.297,2024-02-25 21:33:08.224,5.0
-0.8367,-0.0068,0.155,-1.1368,1.442,-1.1749,2024-02-25 21:33:08.279,5.0
-0.8464,0.0,0.1577,-0.9766,1.2131,-1.3046,2024-02-25 21:33:08.341,5.0
-0.8438,-0.0029,0.1506,-0.8163,1.1749,-1.236,2024-02-25 21:33:08.396,5.0
-0.8459,-0.0029,0.1648,-1.0071,0.6943,-1.3199,2024-02-25 21:33:08.455,5.0
-0.8423,0.0002,0.1602,-1.5869,0.6409,-1.152,2024-02-25 21:33:08.517,5.0
-0.8433,-0.0037,0.1521,-1.7853,1.0834,-1.1292,2024-02-25 21:33:08.577,5.0
-0.8481,-0.0034,0.1528,-1.6785,0.4654,-1.2589,2024-02-25 21:33:08.634,5.0
-0.844,-0.0005,0.1575,-1.2512,0.0687,-1.297,2024-02-25 21:33:08.695,5.0
-0.8416,-0.0022,0.1594,-0.7172,0.8392,-1.2131,2024-02-25 21:33:08.752,5.0
-0.8428,0.0007,0.1584,-0.7553,0.4349,-1.4648,2024-02-25 21:33:08.807,5.0
-0.8455,0.0046,0.1526,-1.2207,0.6866,-1.2665,2024-02-25 21:33:08.867,5.0
-0.8442,-0.0039,0.1675,-1.2207,-0.4196,-0.9689,2024-02-25 21:33:08.924,5.0
-0.844,-0.0002,0.1628,-1.4648,0.0916,-1.0605,2024-02-25 21:33:08.985,5.0
-0.8425,-0.0012,0.1721,-1.5793,0.8469,-1.297,2024-02-25 21:33:09.042,5.0
-0.8442,0.0032,0.1626,-1.3657,0.4578,-1.1063,2024-02-25 21:33:09.101,5.0
-0.843,0.0024,0.1675,-0.8926,1.1902,-1.5182,2024-02-25 21:33:09.158,5.0
-0.8472,0.002,0.1711,-1.0529,1.3123,-1.4343,2024-02-25 21:33:09.220,5.0
-0.8474,0.0007,0.1624,-1.1444,0.7706,-1.236,2024-02-25 21:33:09.275,5.0
-0.8469,-0.0005,0.1611,-1.297,1.3733,-1.4191,2024-02-25 21:33:09.332,5.0
-0.8433,-0.0029,0.178,-1.3809,1.1368,-1.3351,2024-02-25 21:33:09.394,5.0
-0.8528,-0.0005,0.1675,-1.7776,2.1667,-1.358,2024-02-25 21:33:09.454,5.0
-0.8416,0.002,0.1755,-1.7853,-0.6638,-1.0452,2024-02-25 21:33:09.511,5.0
-0.8359,0.0063,0.1694,-1.6098,1.8158,-1.3123,2024-02-25 21:33:09.571,5.0
-0.8511,0.0015,0.1626,-1.2665,1.3809,-1.7548,2024-02-25 21:33:09.627,5.0
-0.8423,0.0034,0.1628,-1.7319,0.1526,-1.2665,2024-02-25 21:33:09.687,5.0
-0.844,0.0059,0.1746,-1.3428,1.6098,-1.2741,2024-02-25 21:33:09.742,5.0
-0.8445,-0.0005,0.1694,-0.8698,1.5793,-1.2817,2024-02-25 21:33:09.807,5.0
-0.8423,0.0029,0.1738,-0.4349,0.4425,-1.4267,2024-02-25 21:33:09.862,5.0
-0.8425,-0.0007,0.1689,-0.4349,0.1526,-1.3733,2024-02-25 21:33:09.921,5.0
-0.8491,0.0022,0.168,-1.1826,0.2823,-1.5182,2024-02-25 21:33:09.980,5.0
-0.8413,0.0012,0.1633,-1.5717,0.6332,-0.9842,2024-02-25 21:33:10.038,5.0
-0.8423,-0.0015,0.1731,-1.6479,1.4572,-0.9613,2024-02-25 21:33:10.100,5.0
-0.8499,0.0002,0.1826,-0.9003,0.0076,-0.9842,2024-02-25 21:33:10.153,5.0
-0.8435,0.0081,0.175,-0.7935,-0.0916,-1.2054,2024-02-25 21:33:10.216,5.0
-0.8369,0.0002,0.1743,-0.7477,1.3733,-1.2207,2024-02-25 21:33:10.270,5.0
-0.8442,-0.0002,0.1858,-1.3123,-0.0229,-1.4801,2024-02-25 21:33:10.331,5.0
-0.8452,0.0005,0.187,-0.9613,-0.6561,-0.9766,2024-02-25 21:33:10.388,5.0
-0.842,0.0051,0.1736,-1.1902,0.145,-1.4038,2024-02-25 21:33:10.448,5.0
-0.8359,0.0068,0.1833,-1.6174,1.3046,-1.2436,2024-02-25 21:33:10.506,5.0
-0.8428,0.0034,0.1816,-1.5488,0.7553,-1.1597,2024-02-25 21:33:10.563,5.0
-0.8362,0.0,0.1812,-1.5488,0.206,-1.2817,2024-02-25 21:33:10.623,5.0
-0.8401,0.0037,0.1887,-1.3046,1.3809,-1.3428,2024-02-25 21:33:10.682,5.0
-0.8435,0.0002,0.1814,-1.5259,1.4267,-1.3962,2024-02-25 21:33:10.739,5.0
-0.845,-0.0005,0.186,-1.3046,2.3422,-1.4954,2024-02-25 21:33:10.796,5.0
-0.8496,0.0015,0.1855,-1.1826,1.152,-1.5411,2024-02-25 21:33:10.853,5.0
-0.8406,-0.0034,0.1887,-0.3357,1.3885,-1.5869,2024-02-25 21:33:10.912,5.0
-0.8381,-0.0002,0.1812,-0.0763,0.6256,-1.8005,2024-02-25 21:33:10.974,5.0
-0.8386,-0.0039,0.1887,-0.4349,1.1368,-1.8692,2024-02-25 21:33:11.032,5.0
-0.8506,0.0112,0.1948,-0.9689,1.7624,-1.2894,2024-02-25 21:33:11.092,5.0
-0.8401,-0.0032,0.1792,-1.1826,0.7401,-1.091,2024-02-25 21:33:11.147,5.0
-0.8398,0.0037,0.1787,-1.297,1.2665,-1.3275,2024-02-25 21:33:11.208,5.0
-0.8445,-0.0093,0.1875,-0.5722,1.4038,-1.1902,2024-02-25 21:33:11.266,5.0
-0.8474,0.0015,0.1943,-0.9232,1.6785,-1.6098,2024-02-25 21:33:11.326,5.0
-0.8503,-0.001,0.1917,-0.4807,1.4725,-1.3504,2024-02-25 21:33:11.381,5.0
-0.8494,0.0061,0.1907,-1.1673,1.9913,-1.8616,2024-02-25 21:33:11.442,5.0
-0.8381,0.01,0.1865,-1.9302,1.0452,-1.1673,2024-02-25 21:33:11.500,5.0
-0.8459,-0.011,0.1865,-1.7624,0.6866,-1.1444,2024-02-25 21:33:11.555,5.0
-0.8438,-0.0024,0.1841,-1.1292,2.2964,-1.2741,2024-02-25 21:33:11.619,5.0
-0.8486,0.0039,0.1787,-1.1215,1.3504,-1.2665,2024-02-25 21:33:11.673,5.0
-0.8391,0.0098,0.1802,-1.9379,1.2894,-1.3657,2024-02-25 21:33:11.731,5.0
-0.8464,0.002,0.1836,-1.9989,1.6861,-1.0834,2024-02-25 21:33:11.792,5.0
-0.843,-0.0083,0.1838,-1.2436,0.9842,-1.2054,2024-02-25 21:33:11.850,5.0
-0.8354,0.0017,0.1853,-0.7324,1.0681,-1.4191,2024-02-25 21:33:11.907,5.0
-0.8452,-0.0012,0.1709,-0.7782,0.7858,-1.4114,2024-02-25 21:33:11.966,5.0
-0.8447,0.0005,0.177,-1.0147,1.8005,-1.3885,2024-02-25 21:33:12.026,5.0
-0.845,0.0039,0.1833,-1.6327,1.4801,-1.2131,2024-02-25 21:33:12.083,5.0
-0.8396,0.0022,0.1814,-1.6861,1.564,-1.4267,2024-02-25 21:33:12.142,5.0
-0.843,-0.0039,0.1855,-1.4496,1.5717,-1.4191,2024-02-25 21:33:12.203,5.0
-0.8455,0.0022,0.1853,-1.5182,1.6785,-1.6174,2024-02-25 21:33:12.261,5.0
-0.8394,-0.0046,0.179,-1.3275,1.2894,-1.0681,2024-02-25 21:33:12.319,5.0
-0.8457,-0.0017,0.1826,-1.4648,2.739,-1.4114,2024-02-25 21:33:12.378,5.0
-0.8418,-0.0002,0.1865,-1.0605,1.2131,-1.3275,2024-02-25 21:33:12.437,5.0
-0.8401,0.0015,0.1899,-1.0071,1.9455,-1.1902,2024-02-25 21:33:12.495,5.0
-0.8435,0.0061,0.1902,-0.9232,1.6632,-1.297,2024-02-25 21:33:12.549,5.0
-0.8423,0.0,0.1799,-1.152,1.6327,-1.3962,2024-02-25 21:33:12.610,5.0
-0.8406,-0.001,0.1794,-1.3962,1.2894,-1.1749,2024-02-25 21:33:12.677,5.0
-0.8455,0.0027,0.175,-1.4114,2.5024,-1.4267,2024-02-25 21:33:12.726,5.0
-0.8411,-0.0007,0.1877,-1.1063,1.4572,-1.2512,2024-02-25 21:33:12.787,5.0
-0.8435,0.0073,0.1858,-1.358,1.7014,-1.2436,2024-02-25 21:33:12.843,5.0
-0.8442,-0.0005,0.1721,-1.5488,2.1973,-1.2512,2024-02-25 21:33:12.906,5.0
-0.8352,0.001,0.1833,-1.5564,1.6022,-1.2054,2024-02-25 21:33:12.961,5.0
-0.8401,-0.0012,0.1748,-1.6556,1.8921,-1.2589,2024-02-25 21:33:13.019,5.0
-0.8433,-0.0017,0.1753,-1.4725,1.6403,-1.3275,2024-02-25 21:33:13.079,5.0
-0.8416,0.0017,0.1772,-1.2283,1.9836,-1.3657,2024-02-25 21:33:13.139,5.0
-0.8413,0.0034,0.1785,-1.0223,1.6174,-1.3885,2024-02-25 21:33:13.194,5.0
-0.8428,-0.0002,0.1726,-1.0376,1.3428,-1.3733,2024-02-25 21:33:13.256,5.0
-0.8486,0.0112,0.1809,-1.1978,1.7624,-1.5717,2024-02-25 21:33:13.313,5.0
-0.8428,0.0027,0.178,-0.9766,0.7553,-1.1673,2024-02-25 21:33:13.371,5.0
-0.8406,0.0024,0.1809,-0.8926,1.8768,-1.3504,2024-02-25 21:33:13.429,5.0
-0.8486,0.0054,0.1775,-1.3275,1.1063,-1.3428,2024-02-25 21:33:13.508,5.0
-0.8438,0.0012,0.1775,-1.8311,1.6632,-1.2207,2024-02-25 21:33:13.548,5.0
-0.8469,0.0005,0.1833,-1.9684,0.9232,-1.2283,2024-02-25 21:33:13.608,5.0
-0.844,0.0002,0.1794,-1.7014,1.8768,-1.2436,2024-02-25 21:33:13.666,5.0
-0.843,-0.0046,0.1836,-1.5488,1.976,-1.3275,2024-02-25 21:33:13.723,5.0
-0.8418,-0.0042,0.1829,-1.3351,1.0223,-1.2131,2024-02-25 21:33:13.782,5.0
-0.844,0.0059,0.1724,-1.2283,1.9531,-1.5945,2024-02-25 21:33:13.837,5.0
-0.8442,0.0029,0.1802,-1.3657,1.7929,-1.5182,2024-02-25 21:33:13.897,5.0
-0.8396,0.0012,0.177,-1.0757,0.8926,-1.3199,2024-02-25 21:33:13.958,5.0
-0.843,0.0054,0.1753,-0.9995,1.976,-1.3046,2024-02-25 21:33:14.014,5.0
-0.8391,0.0056,0.1733,-1.2131,1.2589,-1.4343,2024-02-25 21:33:14.074,5.0
-0.8408,0.0005,0.1792,-1.0605,1.6098,-1.4191,2024-02-25 21:33:14.136,5.0
-0.8477,0.0095,0.1821,-0.7019,1.77,-1.6937,2024-02-25 21:33:14.189,5.0
-0.8403,0.0012,0.1777,-1.3351,2.5787,-1.0605,2024-02-25 21:33:14.247,5.0
-0.8416,0.011,0.1758,-1.7471,0.1526,-1.2207,2024-02-25 21:33:14.306,5.0
-0.8433,0.0073,0.1804,-2.1362,0.5112,-1.0376,2024-02-25 21:33:14.365,5.0
-0.844,0.0,0.1804,-1.8768,-0.1221,-1.1444,2024-02-25 21:33:14.424,5.0
-0.8477,-0.0071,0.1785,-0.9537,1.9073,-1.5106,2024-02-25 21:33:14.483,5.0
-0.8406,0.0044,0.1831,-0.2823,1.8997,-1.2894,2024-02-25 21:33:14.542,5.0
-0.8459,0.001,0.1753,-0.7706,0.3204,-1.5488,2024-02-25 21:33:14.599,5.0
-0.842,-0.001,0.1689,-1.2207,1.8997,-1.0986,2024-02-25 21:33:14.659,5.0
-0.8481,0.0034,0.1853,-1.2894,2.1133,-1.4801,2024-02-25 21:33:14.720,5.0
-0.8391,0.0063,0.1792,-0.9842,0.8469,-1.442,2024-02-25 21:33:14.783,5.0
-0.8406,0.002,0.1738,-1.3428,0.9537,-1.0605,2024-02-25 21:33:14.836,5.0
-0.8496,0.0054,0.1697,-1.6251,2.0065,-1.6327,2024-02-25 21:33:14.894,5.0
-0.8394,0.0015,0.1826,-1.3504,1.0757,-0.7782,2024-02-25 21:33:14.965,5.0
-0.8462,-0.0015,0.1819,-1.2665,1.5717,-1.1673,2024-02-25 21:33:15.010,5.0
-0.8481,0.0129,0.1768,-1.8616,2.7161,-2.0905,2024-02-25 21:33:15.068,5.0
-0.8413,-0.0073,0.1851,-1.7853,1.9913,-1.358,2024-02-25 21:33:15.130,5.0
-0.8396,0.0007,0.1765,-1.3123,1.1368,-1.1902,2024-02-25 21:33:15.188,5.0
-0.8452,0.0039,0.1824,-1.0223,2.8381,-1.091,2024-02-25 21:33:15.245,5.0
-0.8425,0.0066,0.1838,-1.3962,1.6022,-1.3046,2024-02-25 21:33:15.302,5.0
-0.835,0.0056,0.186,-1.6251,1.8997,-1.442,2024-02-25 21:33:15.359,5.0
-0.8469,0.0034,0.1777,-1.2817,1.8311,-1.3275,2024-02-25 21:33:15.418,5.0
-0.8438,-0.0029,0.1726,-0.9003,1.4267,-1.4572,2024-02-25 21:33:15.478,5.0
-0.842,-0.0012,0.1667,-0.3662,1.442,-1.358,2024-02-25 21:33:15.540,5.0
-0.8416,0.0002,0.1714,-0.9308,1.6479,-1.7776,2024-02-25 21:33:15.597,5.0
-0.843,0.0029,0.1838,-1.152,0.9613,-1.3657,2024-02-25 21:33:15.653,5.0
-0.8413,-0.0005,0.1746,-1.2894,1.9684,-1.442,2024-02-25 21:33:15.713,5.0
-0.8386,-0.0037,0.1675,-1.0376,2.6398,-1.5335,2024-02-25 21:33:15.771,5.0
-0.8506,-0.0034,0.1716,-1.3123,1.8539,-1.6708,2024-02-25 21:33:15.827,5.0
-0.8423,0.0059,0.1755,-0.9308,1.2665,-1.4343,2024-02-25 21:33:15.885,5.0
-0.8545,0.0017,0.1631,-1.5335,1.8387,-1.2741,2024-02-25 21:33:15.950,5.0
-0.8391,0.0017,0.1792,-1.5106,1.236,-1.4572,2024-02-25 21:33:16.006,5.0
-0.8423,-0.0085,0.1814,-1.2894,3.0212,-1.5717,2024-02-25 21:33:16.067,5.0
-0.8511,-0.0071,0.1719,-0.7782,2.3499,-1.6632,2024-02-25 21:33:16.124,5.0
-0.8354,0.002,0.1765,-0.2213,1.9531,-1.5488,2024-02-25 21:33:16.183,5.0
-0.8442,0.0024,0.1719,-0.679,4.1275,-1.9608,2024-02-25 21:33:16.241,5.0
-0.843,0.0029,0.1682,-0.7706,2.0523,-1.4114,2024-02-25 21:33:16.301,5.0
-0.8362,0.0039,0.1626,-1.3962,1.6785,-1.3733,2024-02-25 21:33:16.359,5.0
-0.8484,0.0051,0.166,-1.1597,1.4343,-1.442,2024-02-25 21:33:16.416,5.0
-0.8486,-0.0024,0.1589,-0.6485,0.6866,-1.2512,2024-02-25 21:33:16.490,5.0
-0.8457,0.0007,0.1636,-0.2594,1.0376,-1.6479,2024-02-25 21:33:16.533,5.0
-0.8379,0.0002,0.1714,-0.2289,0.3662,-1.5488,2024-02-25 21:33:16.594,5.0
-0.8462,-0.0034,0.1729,-0.5264,1.2741,-1.7319,2024-02-25 21:33:16.660,5.0
-0.842,-0.0012,0.1663,-0.5798,0.9003,-1.4954,2024-02-25 21:33:16.707,5.0
-0.8508,0.0002,0.165,-0.3586,0.1221,-1.4725,2024-02-25 21:33:16.766,5.0
-0.8459,-0.0012,0.1665,-0.5493,0.3586,-1.5335,2024-02-25 21:33:16.827,5.0
-0.8325,-0.0059,0.1682,-0.6943,0.6943,-1.3657,2024-02-25 21:33:16.886,5.0
-0.844,0.0007,0.1672,-1.0529,1.2589,-1.3046,2024-02-25 21:33:16.947,5.0
-0.845,-0.001,0.1658,-1.1597,0.9384,-1.2512,2024-02-25 21:33:17.000,5.0
-0.8486,-0.0007,0.1672,-1.5411,1.442,-1.1902,2024-02-25 21:33:17.059,5.0
-0.8477,-0.0024,0.1682,-1.4648,1.4038,-1.2436,2024-02-25 21:33:17.114,5.0
-0.8433,0.001,0.1655,-1.4725,1.3733,-1.1902,2024-02-25 21:33:17.175,5.0
-0.8418,-0.0044,0.1638,-1.091,0.9537,-1.2054,2024-02-25 21:33:17.236,5.0
-0.8391,-0.0056,0.1721,-0.4959,1.8692,-1.5717,2024-02-25 21:33:17.292,5.0
-0.8428,-0.0005,0.1721,-0.6866,1.8768,-1.4877,2024-02-25 21:33:17.352,5.0
-0.8403,-0.0015,0.1719,-1.091,3.2959,-1.4038,2024-02-25 21:33:17.412,5.0
-0.8525,-0.0078,0.1687,-1.0757,1.6098,-1.0071,2024-02-25 21:33:17.466,5.0
-0.8462,-0.0032,0.1636,-1.3351,-1.4191,-0.9842,2024-02-25 21:33:17.525,5.0
-0.8416,0.0039,0.1716,-1.5564,4.1733,-0.9155,2024-02-25 21:33:17.585,5.0
-0.8474,-0.0007,0.1721,-1.9836,3.685,-1.2283,2024-02-25 21:33:17.646,5.0
-0.8459,0.0024,0.1646,-2.1057,0.4272,-1.2512,2024-02-25 21:33:17.706,5.0
-0.8445,-0.0005,0.1702,-2.0599,-0.618,-0.8774,2024-02-25 21:33:17.762,5.0
-0.8411,-0.0134,0.1626,-1.3275,0.7019,-0.946,2024-02-25 21:33:17.821,5.0
-0.8459,-0.0017,0.1631,-1.4725,-0.3357,-1.1444,2024-02-25 21:33:17.877,5.0
-0.8354,0.0029,0.1685,-2.0142,0.2823,-0.9308,2024-02-25 21:33:17.934,5.0
-0.8425,0.0012,0.1772,-2.1515,1.7242,-0.8621,2024-02-25 21:33:17.997,5.0
-0.843,-0.0088,0.1685,-1.8387,0.3815,-1.2436,2024-02-25 21:33:18.053,5.0
-0.8489,0.0015,0.1663,-1.5488,0.0305,-1.1673,2024-02-25 21:33:18.110,5.0
-0.8337,0.0002,0.1545,-1.7242,1.1139,-1.2207,2024-02-25 21:33:18.172,5.0
-0.8435,-0.0005,0.179,-2.1133,0.8316,-0.9079,2024-02-25 21:33:18.230,5.0
-0.8413,-0.002,0.1802,-1.7166,1.5182,-1.03,2024-02-25 21:33:18.287,5.0
-0.8442,-0.002,0.1694,-1.4496,0.9842,-1.4038,2024-02-25 21:33:18.344,5.0
-0.8472,0.0017,0.1733,-1.0223,1.0986,-1.2512,2024-02-25 21:33:18.407,5.0
-0.8406,0.0,0.1741,-1.2589,1.236,-1.5488,2024-02-25 21:33:18.464,5.0
-0.8386,0.0054,0.1794,-1.1215,0.351,-1.3199,2024-02-25 21:33:18.523,5.0
-0.8435,0.0002,0.1802,-0.6714,0.5341,-1.1368,2024-02-25 21:33:18.583,5.0
-0.8391,0.0051,0.1758,-0.679,1.2283,-1.3809,2024-02-25 21:33:18.641,5.0
-0.8386,0.0005,0.1846,-0.0305,1.3199,-1.6098,2024-02-25 21:33:18.698,5.0
-0.8396,0.0054,0.1814,-0.351,0.8392,-1.5945,2024-02-25 21:33:18.752,5.0
-0.8394,0.0059,0.1729,-1.5259,2.327,-1.2207,2024-02-25 21:33:18.815,5.0
-0.8406,-0.0049,0.1777,-1.6861,1.3885,-1.3504,2024-02-25 21:33:18.875,5.0
-0.8445,0.0029,0.177,-2.182,1.2665,-1.5869,2024-02-25 21:33:18.930,5.0
-0.8425,0.002,0.1785,-1.3123,0.8316,-1.2283,2024-02-25 21:33:18.992,5.0
-0.8418,0.002,0.1782,-0.3815,1.6174,-1.6403,2024-02-25 21:33:19.050,5.0
-0.8413,0.0051,0.1824,-0.3738,1.7548,-1.7166,2024-02-25 21:33:19.107,5.0
-0.8267,0.0083,0.1794,-0.4578,2.388,-3.1357,2024-02-25 21:33:19.164,5.0
-0.8438,0.0044,0.1755,-1.3428,1.1215,-1.1902,2024-02-25 21:33:19.227,5.0
-0.8386,-0.0022,0.1804,-1.4648,1.3885,-1.5945,2024-02-25 21:33:19.285,5.0
-0.8486,0.0017,0.1821,-1.2512,2.1362,-1.5335,2024-02-25 21:33:19.340,5.0
-0.8416,0.0061,0.1809,-1.0681,1.7929,-1.5488,2024-02-25 21:33:19.402,5.0
-0.8408,0.0007,0.167,-1.0605,1.1826,-1.7395,2024-02-25 21:33:19.456,5.0
-0.843,-0.0007,0.1794,-1.2207,1.2512,-1.5182,2024-02-25 21:33:19.518,5.0
-0.8484,-0.0022,0.1736,-0.6332,1.7853,-1.4267,2024-02-25 21:33:19.577,5.0
-0.8418,0.0005,0.1707,-0.8392,2.0676,-1.564,2024-02-25 21:33:19.636,5.0
-0.8403,0.0032,0.1711,-1.2817,3.8986,-1.77,2024-02-25 21:33:19.692,5.0
-0.8425,-0.0093,0.1841,-1.6251,4.1962,-1.5182,2024-02-25 21:33:19.752,5.0
-0.8333,0.0071,0.1724,-1.1139,5.4932,-3.1433,2024-02-25 21:33:19.809,5.0
-0.8479,-0.0007,0.1692,-1.0757,2.8915,-1.5717,2024-02-25 21:33:19.868,5.0
-0.8457,-0.0054,0.1672,-1.2283,2.2583,-1.503,2024-02-25 21:33:19.926,5.0
-0.8433,-0.0042,0.1731,-0.7935,2.6245,-1.5106,2024-02-25 21:33:19.983,5.0
-0.8455,-0.0024,0.1667,-0.6409,0.9537,-1.564,2024-02-25 21:33:20.044,5.0
-0.8464,0.0002,0.1729,-0.145,1.0986,-1.6174,2024-02-25 21:33:20.103,5.0
-0.8396,-0.0044,0.1682,-0.2213,1.2894,-1.4954,2024-02-25 21:33:20.159,5.0
-0.8525,-0.0027,0.1653,-0.3891,1.7624,-1.6861,2024-02-25 21:33:20.219,5.0
-0.8474,0.0017,0.1628,-1.3428,1.6479,-1.7471,2024-02-25 21:33:20.277,5.0
-0.8323,-0.0024,0.1653,-1.4343,0.4425,-1.2131,2024-02-25 21:33:20.338,5.0
-0.8506,-0.0068,0.1572,-1.0986,1.9379,-1.5869,2024-02-25 21:33:20.392,5.0
-0.8354,-0.0005,0.1619,-1.0223,1.2589,-1.6632,2024-02-25 21:33:20.453,5.0
-0.8445,-0.0005,0.1616,-1.1368,3.3035,-1.4191,2024-02-25 21:33:20.513,5.0
-0.8442,-0.0022,0.1594,-1.3199,0.3662,-1.1139,2024-02-25 21:33:20.570,5.0
-0.8472,-0.009,0.1565,-1.1902,0.9308,-1.3351,2024-02-25 21:33:20.630,5.0
-0.8489,-0.0164,0.1614,-0.9766,1.4114,-1.4648,2024-02-25 21:33:20.688,5.0
-0.8391,-0.0039,0.1675,-1.091,0.7401,-1.3504,2024-02-25 21:33:20.749,5.0
-0.8416,-0.0002,0.165,-0.8392,1.4801,-1.2512,2024-02-25 21:33:20.804,5.0
-0.8401,-0.012,0.1721,-0.4959,3.3035,-1.091,2024-02-25 21:33:20.862,5.0
-0.8481,-0.0071,0.1558,-0.5875,2.7695,-1.8692,2024-02-25 21:33:20.924,5.0
-0.8391,0.0071,0.1628,-0.6104,3.624,-1.4343,2024-02-25 21:33:20.978,5.0
-0.8386,0.0029,0.1626,-1.0529,1.3275,-1.2741,2024-02-25 21:33:21.036,5.0
-0.8435,-0.0007,0.158,-1.2207,2.2354,-1.4877,2024-02-25 21:33:21.096,5.0
-0.8376,-0.0083,0.1729,-1.0757,2.9755,-1.3123,2024-02-25 21:33:21.156,5.0
-0.8459,0.001,0.1506,-0.9003,2.1439,-1.4801,2024-02-25 21:33:21.211,5.0
-0.8428,-0.0002,0.1541,-1.564,1.6098,-1.4648,2024-02-25 21:33:21.274,5.0
-0.8511,-0.0132,0.167,-1.77,0.8774,-0.3586,2024-02-25 21:33:21.329,5.0
-0.8367,-0.0049,0.1606,-1.709,1.7014,-1.1978,2024-02-25 21:33:21.389,5.0
-0.8428,-0.0022,0.1541,-1.6632,2.8534,-1.297,2024-02-25 21:33:21.448,5.0
-0.8501,0.0002,0.1533,-2.1744,2.243,-1.3199,2024-02-25 21:33:21.506,5.0
-0.8411,0.0,0.157,-2.2354,1.8921,-0.8698,2024-02-25 21:33:21.563,5.0
-0.8423,-0.0012,0.1523,-2.5024,2.0752,-1.4038,2024-02-25 21:33:21.622,5.0
-0.8403,-0.0105,0.1519,-1.8768,1.9379,-1.2741,2024-02-25 21:33:21.680,5.0
-0.8489,-0.0068,0.1506,-1.7853,2.6474,-1.3504,2024-02-25 21:33:21.740,5.0
-0.842,-0.0012,0.1489,-1.7776,1.7014,-1.2817,2024-02-25 21:33:21.796,5.0
-0.8445,-0.0002,0.1504,-1.6327,2.3727,-1.2817,2024-02-25 21:33:21.858,5.0
-0.8442,-0.0066,0.1516,-1.4114,2.2354,-1.2512,2024-02-25 21:33:21.918,5.0
-0.8413,-0.0032,0.1487,-1.1749,2.1973,-1.4954,2024-02-25 21:33:21.977,5.0
-0.8464,-0.002,0.1509,-1.6556,2.2583,-1.1444,2024-02-25 21:33:22.032,5.0
-0.844,-0.0056,0.1477,-1.7395,2.6016,-1.3199,2024-02-25 21:33:22.092,5.0
-0.8425,-0.0034,0.1514,-1.2817,2.1439,-1.3428,2024-02-25 21:33:22.152,5.0
-0.8472,-0.0081,0.1475,-0.7782,2.5711,-1.5182,2024-02-25 21:33:22.210,5.0
-0.8442,-0.0073,0.1362,-0.8926,2.5558,-1.3275,2024-02-25 21:33:22.268,5.0
-0.8459,-0.0078,0.1379,-1.1139,1.8616,-1.1826,2024-02-25 21:33:22.323,5.0
-0.8503,0.0002,0.1492,-1.6022,2.1591,-1.236,2024-02-25 21:33:22.384,5.0
-0.8413,-0.0037,0.1497,-2.0752,1.4191,-1.2436,2024-02-25 21:33:22.442,5.0
-0.8499,-0.0032,0.1392,-1.8158,1.442,-1.1444,2024-02-25 21:33:22.499,5.0
-0.8438,-0.0061,0.1416,-1.709,1.8845,-1.2283,2024-02-25 21:33:22.559,5.0
-0.8438,0.002,0.1423,-2.0142,1.8158,-1.5564,2024-02-25 21:33:22.618,5.0
-0.842,-0.0076,0.1458,-2.0294,1.3046,-1.0681,2024-02-25 21:33:22.679,5.0
-0.8477,-0.002,0.1323,-1.6022,0.7935,-2.0065,2024-02-25 21:33:22.735,5.0
-0.8481,0.0012,0.147,-1.7166,0.1755,-1.3428,2024-02-25 21:33:22.794,5.0
-0.8501,-0.0063,0.1433,-1.2283,-0.3128,-1.2894,2024-02-25 21:33:22.852,5.0
-0.8381,-0.0071,0.1455,-0.5341,-0.0763,-1.297,2024-02-25 21:33:22.907,5.0
-0.8447,0.001,0.1489,-0.7858,1.8616,-1.7242,2024-02-25 21:33:22.969,5.0
-0.8438,-0.0039,0.1516,-0.8774,1.0452,-1.1902,2024-02-25 21:33:23.028,5.0
-0.8455,-0.0012,0.1443,-0.473,0.6866,-1.1444,2024-02-25 21:33:23.086,5.0
-0.843,0.0012,0.1433,-0.9384,1.0223,-1.4343,2024-02-25 21:33:23.146,5.0
-0.8396,-0.0044,0.1416,-1.4267,1.5488,-1.4877,2024-02-25 21:33:23.204,5.0
-0.8496,-0.0051,0.1479,-1.5106,0.2975,-1.3809,2024-02-25 21:33:23.259,5.0
-0.8423,0.0005,0.1492,-1.564,0.4044,-1.3657,2024-02-25 21:33:23.318,5.0
-0.8452,-0.0037,0.1418,-1.8921,0.4501,-1.2436,2024-02-25 21:33:23.380,5.0
-0.8462,0.0022,0.1543,-2.2659,0.8163,-1.4496,2024-02-25 21:33:23.435,5.0
-0.843,-0.0095,0.1475,-1.6556,1.2283,-1.3199,2024-02-25 21:33:23.494,5.0
-0.8452,0.0034,0.1389,-1.7014,2.9678,-2.3956,2024-02-25 21:33:23.553,5.0
-0.8491,-0.0029,0.1477,-1.3962,0.6104,-1.3504,2024-02-25 21:33:23.612,5.0
-0.844,-0.0049,0.155,-1.3275,1.4496,-1.3046,2024-02-25 21:33:23.671,5.0
-0.8481,0.0002,0.1489,-1.1444,2.2736,-1.5335,2024-02-25 21:33:23.730,5.0
-0.8457,0.0044,0.1531,-1.358,-0.3433,-1.1215,2024-02-25 21:33:23.789,5.0
-0.835,-0.0015,0.1514,-1.6251,0.2823,-0.9995,2024-02-25 21:33:23.846,5.0
-0.8477,0.0076,0.1531,-1.5411,0.7401,-1.1978,2024-02-25 21:33:23.904,5.0
-0.844,0.0051,0.1599,-1.8616,-0.4807,-0.6485,2024-02-25 21:33:23.963,5.0
-0.8413,-0.0002,0.1487,-2.0142,-0.8163,-1.0605,2024-02-25 21:33:24.021,5.0
-0.8455,-0.001,0.1577,-2.2049,1.3123,-1.3657,2024-02-25 21:33:24.078,5.0
-0.8379,0.0081,0.1602,-2.4567,1.0834,-1.4801,2024-02-25 21:33:24.137,5.0
-0.8425,-0.0032,0.1602,-2.8915,0.618,-1.1292,2024-02-25 21:33:24.197,5.0
-0.8489,-0.0042,0.1687,-2.739,1.7319,-1.4496,2024-02-25 21:33:24.255,5.0
-0.8428,-0.0046,0.1611,-1.7929,0.6943,-1.1978,2024-02-25 21:33:24.312,5.0
-0.8503,-0.0098,0.1663,-0.5341,1.7624,-1.5945,2024-02-25 21:33:24.372,5.0
-0.8379,-0.0017,0.1538,0.7401,1.7319,-1.564,2024-02-25 21:33:24.431,5.0
-0.8418,-0.0034,0.158,1.0681,1.3885,-1.7929,2024-02-25 21:33:24.489,5.0
-0.8438,-0.0039,0.1621,0.618,1.6937,-1.8082,2024-02-25 21:33:24.549,5.0
-0.8547,0.0022,0.1577,0.0305,1.7319,-1.5717,2024-02-25 21:33:24.608,5.0
-0.8389,-0.0037,0.1497,-0.8163,2.121,-1.4648,2024-02-25 21:33:24.665,5.0
-0.8499,0.0012,0.1648,-1.2512,1.4572,-1.2283,2024-02-25 21:33:24.722,5.0
-0.8416,-0.0032,0.1538,-1.709,1.7624,-1.0834,2024-02-25 21:33:24.780,5.0
-0.8474,0.002,0.1604,-2.3422,1.4648,-1.1826,2024-02-25 21:33:24.839,5.0
-0.8469,-0.0081,0.1616,-2.739,1.6861,-0.9155,2024-02-25 21:33:24.895,5.0
-0.8494,-0.002,0.1597,-2.5101,1.4877,-0.8163,2024-02-25 21:33:24.955,5.0
-0.8477,-0.0037,0.1558,-2.2202,0.9918,-1.2054,2024-02-25 21:33:25.014,5.0
-0.8435,-0.0002,0.165,-1.7624,1.0986,-1.0376,2024-02-25 21:33:25.075,5.0
-0.845,-0.0093,0.1694,-1.442,0.7935,-1.0757,2024-02-25 21:33:25.133,5.0
-0.8481,-0.0093,0.1604,-1.4038,1.03,-1.0681,2024-02-25 21:33:25.191,5.0
-0.845,-0.0034,0.1663,-1.564,1.358,-1.3428,2024-02-25 21:33:25.249,5.0
-0.8511,0.0017,0.1541,-1.6708,0.7172,-1.0681,2024-02-25 21:33:25.307,5.0
-0.8411,-0.001,0.1619,-1.5411,0.7935,-1.4877,2024-02-25 21:33:25.364,5.0
-0.8408,0.0034,0.1714,-1.442,1.1368,-1.2054,2024-02-25 21:33:25.423,5.0
-0.8455,0.0042,0.1648,-1.8311,0.7553,-1.1673,2024-02-25 21:33:25.482,5.0
-0.8469,-0.0051,0.1667,-1.8463,0.6561,-1.2589,2024-02-25 21:33:25.542,5.0
-0.8433,-0.002,0.1687,-1.5411,1.2131,-1.3657,2024-02-25 21:33:25.599,5.0
-0.8442,-0.0054,0.1658,-0.9766,0.4044,-1.4954,2024-02-25 21:33:25.657,5.0
-0.844,0.0017,0.158,-0.5341,-0.1221,-1.7014,2024-02-25 21:33:25.715,5.0
-0.845,0.0078,0.1631,-0.4807,1.091,-1.2589,2024-02-25 21:33:25.775,5.0
-0.8445,0.0032,0.1675,-0.5035,0.8163,-1.4954,2024-02-25 21:33:25.833,5.0
-0.844,-0.0002,0.1697,-1.1215,2.0752,-1.1292,2024-02-25 21:33:25.891,5.0
-0.8303,0.0042,0.1663,-1.7471,0.8469,-0.9537,2024-02-25 21:33:25.951,5.0
-0.8342,0.0029,0.1711,-2.3575,1.8692,-1.3275,2024-02-25 21:33:26.011,5.0
-0.8401,0.0005,0.1772,-2.1286,1.2054,-1.2131,2024-02-25 21:33:26.067,5.0
-0.8408,0.0029,0.1663,-2.037,1.1978,-1.2894,2024-02-25 21:33:26.126,5.0
-0.8406,0.0015,0.1724,-1.7242,0.267,-1.7929,2024-02-25 21:33:26.186,5.0
-0.8413,-0.0049,0.1624,-1.2512,1.0147,-1.6022,2024-02-25 21:33:26.245,5.0
-0.8406,-0.0034,0.1721,-0.8392,1.091,-1.4038,2024-02-25 21:33:26.302,5.0
-0.8411,-0.002,0.1682,-0.6561,2.0752,-1.5564,2024-02-25 21:33:26.361,5.0
-0.8484,-0.0029,0.1736,-0.4044,2.1286,-1.6403,2024-02-25 21:33:26.420,5.0
-0.8481,0.0034,0.1763,-0.6866,2.2278,-1.709,2024-02-25 21:33:26.478,5.0
-0.8455,-0.0049,0.1643,-0.8545,1.4038,-1.3962,2024-02-25 21:33:26.535,5.0
-0.8408,0.0049,0.1597,-1.1978,1.3351,-1.5106,2024-02-25 21:33:26.595,5.0
-0.8477,-0.0032,0.1624,-1.442,2.7161,-1.1749,2024-02-25 21:33:26.653,5.0
-0.8455,-0.0022,0.1643,-1.5335,1.77,-1.0986,2024-02-25 21:33:26.711,5.0
-0.8411,-0.0024,0.1653,-1.5488,2.3727,-1.3275,2024-02-25 21:33:26.770,5.0
-0.8499,-0.0027,0.1626,-1.7548,1.6556,-1.2894,2024-02-25 21:33:26.827,5.0
-0.8394,0.0012,0.1675,-1.8158,0.9003,-1.4191,2024-02-25 21:33:26.886,5.0
-0.8423,-0.011,0.1553,-1.4191,1.9302,-1.236,2024-02-25 21:33:26.945,5.0
-0.8525,-0.0112,0.1626,-1.0529,3.4103,-1.4648,2024-02-25 21:33:27.005,5.0
-0.842,-0.0017,0.1562,-1.1673,1.4114,-1.4038,2024-02-25 21:33:27.067,5.0
-0.8477,0.0,0.1619,-1.3123,1.6708,-1.3428,2024-02-25 21:33:27.125,5.0
-0.8442,-0.0044,0.1648,-1.2436,1.0376,-1.1063,2024-02-25 21:33:27.183,5.0
-0.8477,-0.0027,0.1636,-1.1368,0.8163,-1.3428,2024-02-25 21:33:27.242,5.0
-0.834,-0.0022,0.1633,-0.824,1.3733,-1.2665,2024-02-25 21:33:27.302,5.0
-0.8499,0.0049,0.166,-1.0757,1.503,-1.3275,2024-02-25 21:33:27.362,5.0
-0.8374,-0.0051,0.1699,-1.1368,0.3204,-1.1368,2024-02-25 21:33:27.421,5.0
-0.844,-0.0029,0.1638,-1.0529,1.2436,-1.2894,2024-02-25 21:33:27.485,5.0
-0.8477,-0.0024,0.1641,-1.6098,0.885,-1.297,2024-02-25 21:33:27.540,5.0
-0.844,0.0044,0.1616,-1.4648,1.236,-1.4572,2024-02-25 21:33:27.602,5.0
-0.8445,-0.0015,0.1626,-1.8387,1.2817,-1.2589,2024-02-25 21:33:27.655,5.0
-0.8369,-0.0032,0.1663,-1.4801,1.3657,-1.1902,2024-02-25 21:33:27.714,5.0
-0.8425,-0.0032,0.1648,-1.3733,2.0294,-1.5106,2024-02-25 21:33:27.771,5.0
-0.8398,0.0007,0.1602,-1.4725,0.9689,-1.2283,2024-02-25 21:33:27.832,5.0
-0.8374,-0.0027,0.1665,-1.8845,1.3351,-1.1978,2024-02-25 21:33:27.894,5.0
-0.8452,-0.009,0.1594,-1.5259,1.1826,-1.1292,2024-02-25 21:33:27.948,5.0
-0.8467,0.0002,0.1663,-1.236,1.5106,-1.3809,2024-02-25 21:33:28.007,5.0
-0.8423,0.001,0.1555,-0.9079,1.3275,-1.3199,2024-02-25 21:33:28.064,5.0
-0.8425,-0.0034,0.1675,-1.0757,0.9537,-1.3504,2024-02-25 21:33:28.123,5.0
-0.8445,-0.001,0.1675,-0.9384,1.3504,-1.4572,2024-02-25 21:33:28.180,5.0
-0.8472,-0.001,0.1655,-0.7553,1.1749,-1.2131,2024-02-25 21:33:28.240,5.0
-0.8472,0.0002,0.1572,-0.9079,0.9003,-1.4648,2024-02-25 21:33:28.300,5.0
-0.8403,0.0,0.1677,-0.7858,1.9608,-1.4343,2024-02-25 21:33:28.356,5.0
-0.8398,0.0024,0.1582,-0.9842,1.2283,-1.503,2024-02-25 21:33:28.414,5.0
-0.8452,0.0005,0.1687,-1.3733,1.503,-1.297,2024-02-25 21:33:28.473,5.0
-0.8486,-0.0051,0.1655,-1.1978,1.2283,-1.1826,2024-02-25 21:33:28.532,5.0
-0.8408,-0.0127,0.1616,-0.9308,1.4496,-1.1749,2024-02-25 21:33:28.589,5.0
-0.8513,-0.0103,0.167,-0.1831,1.8616,-1.2817,2024-02-25 21:33:28.651,5.0
-0.845,0.0012,0.1628,-0.3281,0.8087,-1.2741,2024-02-25 21:33:28.711,5.0
-0.8467,0.0051,0.1589,-1.0223,1.0834,-1.1139,2024-02-25 21:33:28.767,5.0
-0.8379,-0.0056,0.1733,-0.9918,1.2512,-1.1368,2024-02-25 21:33:28.826,5.0
-0.8447,-0.0132,0.1672,-0.1755,2.1973,-1.8921,2024-02-25 21:33:28.884,5.0
-0.8499,-0.0112,0.1768,2.0599,2.327,-2.243,2024-02-25 21:33:28.941,5.0
-0.8408,-0.0134,0.1733,4.4403,2.449,-2.7924,2024-02-25 21:33:28.999,5.0
-0.8503,-0.0098,0.177,6.2485,1.9989,-2.9221,2024-02-25 21:33:29.059,5.0
-0.8369,0.0002,0.1589,6.5613,2.2202,-3.0441,2024-02-25 21:33:29.119,5.0
-0.8455,0.0193,0.155,5.6305,2.4338,-2.5024,2024-02-25 21:33:29.175,5.0
-0.8423,0.0007,0.1658,4.097,1.8539,-2.9449,2024-02-25 21:33:29.233,5.0
-0.8428,-0.01,0.1609,4.0894,3.0594,-3.4485,2024-02-25 21:33:29.292,0.0
-0.8479,-0.0146,0.1531,5.3406,3.952,-3.7766,2024-02-25 21:33:29.349,0.0
-0.844,-0.012,0.1509,6.3324,6.134,-3.3569,2024-02-25 21:33:29.407,0.0
-0.8406,-0.0173,0.1555,7.8049,5.5313,-3.1586,2024-02-25 21:33:29.466,0.0
-0.8562,-0.0098,0.1455,8.4229,2.2202,-3.334,2024-02-25 21:33:29.528,0.0
-0.8416,-0.0181,0.1443,9.2545,2.5406,-2.8229,2024-02-25 21:33:29.583,0.0
-0.863,-0.0325,0.1394,12.413,1.2054,-2.7618,2024-02-25 21:33:29.641,0.0
-0.8423,-0.0554,0.1387,16.0904,-0.2975,-4.6997,2024-02-25 21:33:29.702,0.0
-0.8425,-0.0261,0.1387,19.2719,-1.1139,-4.2877,2024-02-25 21:33:29.759,0.0
-0.8413,-0.0205,0.1318,20.2637,-2.5253,-6.2866,2024-02-25 21:33:29.819,0.0
-0.8406,-0.0049,0.1147,17.7917,-4.4937,-6.5613,2024-02-25 21:33:29.877,0.0
-0.8513,0.0046,0.1428,15.3351,2.7237,-4.9744,2024-02-25 21:33:29.933,0.0
-0.8408,-0.0103,0.1233,12.1307,1.3199,-4.7989,2024-02-25 21:33:29.993,0.0
-0.8455,-0.0298,0.1541,10.2768,2.9373,-3.7689,2024-02-25 21:33:30.054,0.0
-0.8479,-0.0193,0.1558,8.4457,5.1041,-4.1351,2024-02-25 21:33:30.110,0.0
-0.8618,-0.0215,0.1284,2.9526,-0.6485,-2.1744,2024-02-25 21:33:30.167,0.0
-0.8511,-0.0227,0.1484,-1.9531,2.8305,-1.1749,2024-02-25 21:33:30.226,0.0
-0.7947,-0.0535,0.1394,-1.442,9.201,-0.6332,2024-02-25 21:33:30.284,0.0
-0.864,-0.0854,0.1682,0.4578,12.6724,-1.0834,2024-02-25 21:33:30.343,
-0.8542,-0.0579,0.1638,4.0817,7.1793,-2.3499,2024-02-25 21:33:30.404,0.0
-0.8359,-0.0403,0.1521,4.4327,4.837,-0.946,2024-02-25 21:33:30.464,0.0
-0.8384,-0.0432,0.1296,3.4256,8.7967,-1.3123,2024-02-25 21:33:30.521,0.0
-0.8479,-0.0386,0.1423,2.4643,5.5923,-1.2131,2024-02-25 21:33:30.577,0.0
-0.8552,-0.0476,0.1316,2.2278,5.661,-2.2049,2024-02-25 21:33:30.636,0.0
-0.8398,-0.0579,0.1313,3.3875,3.1052,-2.1057,2024-02-25 21:33:30.694,0.0
-0.8599,-0.0205,0.1118,1.3809,-0.8698,-1.8311,2024-02-25 21:33:30.754,0.0
-0.845,-0.0244,0.1079,-1.0529,-1.5945,-1.3428,2024-02-25 21:33:30.812,0.0
-0.8401,-0.0359,0.0959,-3.9139,1.8005,-0.9384,2024-02-25 21:33:30.873,0.0
-0.8508,-0.0549,0.1204,-3.7918,2.8687,-1.3733,2024-02-25 21:33:30.927,0.0
-0.8555,-0.0505,0.1089,-3.4027,-0.7019,-1.3275,2024-02-25 21:33:30.987,0.0
-0.8362,-0.0518,0.1008,-2.8305,1.3428,-1.6251,2024-02-25 21:33:31.046,0.0
-0.8477,-0.0505,0.1084,-1.8387,1.5411,-1.3275,2024-02-25 21:33:31.103,0.0
-0.8479,-0.0459,0.1162,-1.2741,1.9608,-1.8997,2024-02-25 21:33:31.163,0.0
-0.8394,-0.0437,0.1082,-0.5951,0.9995,-1.6174,2024-02-25 21:33:31.223,0.0
-0.8359,-0.043,0.1038,-0.8774,1.297,-1.5335,2024-02-25 21:33:31.282,0.0
-0.8413,-0.0339,0.1111,-1.0147,2.3956,-1.5488,2024-02-25 21:33:31.339,0.0
-0.8501,-0.0474,0.1152,-0.8011,1.976,-1.1368,2024-02-25 21:33:31.400,0.0
-0.8438,-0.0381,0.1091,-1.1597,3.8681,-0.7324,2024-02-25 21:33:31.453,0.0
-0.8577,-0.033,0.1194,-1.1826,0.885,-0.7095,2024-02-25 21:33:31.511,
-0.8364,-0.042,0.1082,-2.2888,-0.6104,-0.7629,2024-02-25 21:33:31.572,0.0
-0.8403,-0.0393,0.1104,-2.1362,3.9368,-0.6714,2024-02-25 21:33:31.632,0.0
-0.8496,-0.0403,0.1062,-2.449,3.8834,-1.1139,2024-02-25 21:33:31.690,0.0
-0.845,-0.0364,0.1135,-2.2812,1.1597,-0.8392,2024-02-25 21:33:31.746,0.0
-0.833,-0.0369,0.1077,-2.9984,1.6785,-1.1978,2024-02-25 21:33:31.806,0.0
-0.8381,-0.0283,0.0874,-3.4103,2.2278,-0.7477,2024-02-25 21:33:31.864,0.0
-0.8533,-0.0376,0.0947,-4.0894,0.885,-1.152,2024-02-25 21:33:31.919,0.0
-0.8333,-0.0488,0.1055,-4.0817,-0.7706,-1.0605,2024-02-25 21:33:31.978,0.0
-0.8374,-0.0447,0.1006,-2.6779,1.0452,-1.0834,2024-02-25 21:33:32.040,0.0
-0.8577,-0.0449,0.1096,-1.709,0.1755,-0.8774,2024-02-25 21:33:32.098,0.0
-0.8455,-0.033,0.0913,-2.6855,2.2202,-1.1597,2024-02-25 21:33:32.154,0.0
-0.8459,-0.0327,0.1016,-3.7766,0.1678,-1.03,2024-02-25 21:33:32.216,0.0
-0.8457,-0.0376,0.0896,-3.6545,-1.7853,-0.946,2024-02-25 21:33:32.270,0.0
-0.8213,-0.0308,0.0972,-5.0964,-1.9608,1.5945,2024-02-25 21:33:32.330,0.0
-0.8713,0.0105,0.0762,-9.5291,-1.7014,0.1373,2024-02-25 21:33:32.389,0.0
-0.832,-0.0237,0.0845,-14.3738,-3.006,3.6697,2024-02-25 21:33:32.447,0.0
-0.8208,-0.0288,0.0825,-17.2501,3.3417,1.7395,2024-02-25 21:33:32.505,0.0
-0.8311,-0.0322,0.0872,-17.7689,6.2332,-1.4801,2024-02-25 21:33:32.568,0.0
-0.8179,-0.0122,0.0676,-18.3029,6.2637,-0.5493,2024-02-25 21:33:32.627,0.0
-0.8306,-0.0269,0.0879,-18.0359,13.6642,0.8392,2024-02-25 21:33:32.685,
-0.8083,-0.0513,0.1287,-16.8076,20.8359,2.5101,2024-02-25 21:33:32.742,0.0
-0.897,-0.0261,0.1016,-15.0681,20.6146,2.4033,2024-02-25 21:33:32.800,0.0
-0.8953,-0.0186,0.1096,-15.9149,1.6098,-1.8692,2024-02-25 21:33:32.858,0.0
-0.843,-0.0413,0.1133,-13.8245,-0.0076,0.7095,2024-02-25 21:33:32.918,0.0
-0.8171,0.0205,0.0959,-10.994,-1.5717,-4.0131,2024-02-25 21:33:32.973,0.0
-0.8408,-0.0605,0.0928,-9.5291,3.6469,3.5706,2024-02-25 21:33:33.035,0.0
-0.8677,0.0354,0.0703,-7.7896,3.3798,-4.2267,2024-02-25 21:33:33.090,0.0
-0.8503,-0.0034,0.0723,-8.8806,0.4044,-0.1068,2024-02-25 21:33:33.152,0.0
-0.8501,0.0093,0.0654,-9.6512,4.6844,-2.7542,2024-02-25 21:33:33.207,0.0
-0.8508,-0.0198,0.0642,-10.4218,0.2213,-2.7771,2024-02-25 21:33:33.272,0.0
-0.8362,-0.0042,0.0735,-8.3466,0.3738,-4.5853,2024-02-25 21:33:33.329,0.0
-0.8252,-0.0386,0.0588,-2.9373,7.4539,-0.1144,2024-02-25 21:33:33.387,0.0
-0.8699,-0.0208,0.071,-1.1444,4.9973,-2.1362,2024-02-25 21:33:33.444,0.0
-0.8481,-0.0156,0.053,-0.1144,-0.3662,0.6332,2024-02-25 21:33:33.497,0.0
-0.8359,-0.0173,0.0449,0.0153,4.4785,-0.3128,2024-02-25 21:33:33.560,0.0
-0.853,-0.0359,0.0627,0.6409,4.8981,-1.3733,2024-02-25 21:33:33.616,0.0
-0.8757,-0.0266,0.0527,1.6327,1.236,-1.5869,2024-02-25 21:33:33.674,0.0
-0.844,0.0017,0.0393,0.412,-1.4496,-0.9613,2024-02-25 21:33:33.733,0.0
-0.8286,0.0071,0.0337,-1.7624,1.8311,-0.1755,2024-02-25 21:33:33.792,0.0
-0.8472,-0.0105,0.0427,-4.3716,3.0289,-0.3204,2024-02-25 21:33:33.850,
-0.8474,-0.0073,0.0535,-3.6011,-0.1984,-0.3738,2024-02-25 21:33:33.909,0.0
-0.8398,-0.0298,0.0381,-1.5411,0.2365,-1.3199,2024-02-25 21:33:33.976,0.0
-0.8169,-0.0256,0.0291,1.0529,2.6779,-3.0289,2024-02-25 21:33:34.028,0.0
-0.8462,0.0195,0.0496,1.6861,4.2114,-2.8915,2024-02-25 21:33:34.085,0.0
-0.8625,0.0122,0.0547,0.8698,3.1891,-1.6251,2024-02-25 21:33:34.142,0.0
-0.8464,-0.012,0.0386,-0.145,0.8698,-0.0458,2024-02-25 21:33:34.205,0.0
-0.8406,0.0068,0.0479,-0.1984,-0.7324,-0.0076,2024-02-25 21:33:34.259,0.0
-0.8418,0.0063,0.042,-1.8768,0.351,-0.2747,2024-02-25 21:33:34.319,0.0
-0.8352,-0.0107,0.053,-1.4496,1.3351,-0.7324,2024-02-25 21:33:34.377,0.0
-0.8511,-0.019,0.0447,-0.679,0.3891,-1.8921,2024-02-25 21:33:34.436,0.0
-0.8396,0.0,0.033,0.4501,1.1978,-1.4496,2024-02-25 21:33:34.497,0.0
-0.8477,0.0088,0.0483,-1.0071,1.8692,-0.9766,2024-02-25 21:33:34.555,0.0
-0.8486,0.0027,0.0295,-2.5711,2.1133,-0.9689,2024-02-25 21:33:34.612,0.0
-0.8376,-0.0129,0.0562,-2.3804,1.8234,-0.9537,2024-02-25 21:33:34.670,0.0
-0.8455,-0.0132,0.0605,-1.8158,1.4954,-1.3504,2024-02-25 21:33:34.730,0.0
-0.8477,-0.0168,0.0383,-0.9918,0.0,-1.5793,2024-02-25 21:33:34.786,0.0
-0.8301,-0.0161,0.0508,1.1673,1.3885,-2.0981,2024-02-25 21:33:34.847,0.0
-0.8486,-0.001,0.0354,1.2436,4.4785,-2.9755,2024-02-25 21:33:34.904,0.0
-0.8547,0.0015,0.043,-0.0916,1.2589,-1.3733,2024-02-25 21:33:34.965,0.0
-0.8401,-0.0007,0.0388,-2.2049,1.5106,-0.7095,2024-02-25 21:33:35.025,
