acceleration_x,acceleration_y,acceleration_z,gyroscope_x,gyroscope_y,gyroscope_z,timestamp,label
-13748,-1188,2752,-215,312,-200,2024-01-24 11:10:32,0.0
-13820,-1200,2892,-254,337,-219,2024-01-24 11:10:32,0.0
-13872,-1176,2808,-255,414,-198,2024-01-24 11:10:32,0.0
-13780,-1144,2852,-243,486,-213,2024-01-24 11:10:32,0.0
-13768,-1132,2852,-235,463,-198,2024-01-24 11:10:32,0.0
-13824,-1212,2896,-269,368,-161,2024-01-24 11:10:32,0.0
-13788,-1192,2972,-241,358,-189,2024-01-24 11:10:32,0.0
-13868,-1112,2940,-250,323,-219,2024-01-24 11:10:32,0.0
-13836,-1092,3024,-228,291,-194,2024-01-24 11:10:32,0.0
-13820,-1108,2924,-172,246,-198,2024-01-24 11:10:32,0.0
-13764,-1076,2924,-262,286,-170,2024-01-24 11:10:32,0.0
-13844,-1128,2844,-259,266,-171,2024-01-24 11:10:32,0.0
-13880,-1236,2984,-216,395,-173,2024-01-24 11:10:32,0.0
-14072,-1224,2788,-236,188,-194,2024-01-24 11:10:32,0.0
-13860,-1148,2976,-157,67,-183,2024-01-24 11:10:32,0.0
-13696,-1220,2920,-134,142,-161,2024-01-24 11:10:32,0.0
-13884,-1244,2852,-141,161,-168,2024-01-24 11:10:32,0.0
-13692,-1228,2876,-116,167,-232,2024-01-24 11:10:32,0.0
-13736,-1288,3012,-117,192,-199,2024-01-24 11:10:32,0.0
-13768,-1224,2840,-108,221,-206,2024-01-24 11:10:32,0.0
-13792,-1120,2832,-72,223,-204,2024-01-24 11:10:32,0.0
-13724,-1276,2844,-86,234,-219,2024-01-24 11:10:32,0.0
-13844,-1188,2868,-85,293,-205,2024-01-24 11:10:32,0.0
-13728,-1256,2764,-102,296,-207,2024-01-24 11:10:32,0.0
-13860,-1128,2768,-124,325,-216,2024-01-24 11:10:32,0.0
-13764,-1052,2824,-130,307,-205,2024-01-24 11:10:32,0.0
-13832,-1168,2752,-145,321,-216,2024-01-24 11:10:32,0.0
-13864,-1124,2696,-114,270,-217,2024-01-24 11:10:32,0.0
-13764,-1168,2816,-140,282,-215,2024-01-24 11:10:32,0.0
-13776,-1188,2876,-109,341,-208,2024-01-24 11:10:32,0.0
-13848,-1168,2680,-107,289,-234,2024-01-24 11:10:32,0.0
-13800,-1144,2896,-80,312,-237,2024-01-24 11:10:32,0.0
-13804,-1124,2752,-86,334,-224,2024-01-24 11:10:33,0.0
-13800,-1016,2880,-89,285,-236,2024-01-24 11:10:33,0.0
-13872,-1132,2788,-83,292,-202,2024-01-24 11:10:33,0.0
-13844,-1088,2632,-40,302,-202,2024-01-24 11:10:33,0.0
-13784,-1068,2924,-71,290,-183,2024-01-24 11:10:33,0.0
-13844,-1188,2560,-86,325,-219,2024-01-24 11:10:33,0.0
-13840,-1192,2276,-205,437,-226,2024-01-24 11:10:33,0.0
-13728,-1268,2516,-284,493,-293,2024-01-24 11:10:33,0.0
-13820,-1300,2716,-364,570,-312,2024-01-24 11:10:33,0.0
-14072,-1104,2832,-393,598,-241,2024-01-24 11:10:33,0.0
-13916,-1120,2844,-464,446,-179,2024-01-24 11:10:33,0.0
-14004,-1080,2768,-521,283,-177,2024-01-24 11:10:33,0.0
-13912,-1212,2732,-513,71,-194,2024-01-24 11:10:33,0.0
-13680,-1228,2680,-551,-47,-202,2024-01-24 11:10:33,0.0
-13672,-1328,2776,-566,-29,-201,2024-01-24 11:10:33,0.0
-13744,-1272,2804,-536,58,-163,2024-01-24 11:10:33,0.0
-13692,-1352,2788,-523,157,-145,2024-01-24 11:10:33,0.0
-13744,-1292,2800,-470,238,-132,2024-01-24 11:10:33,0.0
-13748,-1140,2720,-456,304,-76,2024-01-24 11:10:33,0.0
-13856,-1160,2548,-421,277,-97,2024-01-24 11:10:33,0.0
-13760,-1236,2756,-382,284,-123,2024-01-24 11:10:33,0.0
-13864,-1284,2664,-259,221,-204,2024-01-24 11:10:33,0.0
-13728,-1288,2784,-197,270,-189,2024-01-24 11:10:33,0.0
-13820,-1312,2684,-154,270,-189,2024-01-24 11:10:33,0.0
-13764,-1204,2592,-136,232,-233,2024-01-24 11:10:33,0.0
-13720,-1256,2688,-75,222,-242,2024-01-24 11:10:33,0.0
-13776,-1168,2572,-86,257,-222,2024-01-24 11:10:33,0.0
-13964,-1228,2600,-56,299,-217,2024-01-24 11:10:33,0.0
-13848,-1168,2688,-60,268,-206,2024-01-24 11:10:33,0.0
-13836,-1128,2612,-87,217,-201,2024-01-24 11:10:33,0.0
-13800,-1188,2572,-127,289,-194,2024-01-24 11:10:33,0.0
-13768,-1176,2616,-132,287,-172,2024-01-24 11:10:33,0.0
-13736,-1256,2628,-138,281,-183,2024-01-24 11:10:33,0.0
-13872,-1160,2688,-126,258,-180,2024-01-24 11:10:33,0.0
-13776,-1304,2772,-131,291,-166,2024-01-24 11:10:33,0.0
-13780,-1232,2668,-118,306,-191,2024-01-24 11:10:33,0.0
-13780,-1256,2732,-111,300,-174,2024-01-24 11:10:33,0.0
-13796,-1272,2716,-77,280,-200,2024-01-24 11:10:33,0.0
-13800,-1148,2780,-90,287,-227,2024-01-24 11:10:33,0.0
-13824,-1256,2708,-57,276,-240,2024-01-24 11:10:33,0.0
-13892,-1240,2680,-57,263,-249,2024-01-24 11:10:33,0.0
-13968,-1180,2688,-81,212,-229,2024-01-24 11:10:33,0.0
-13908,-1168,2756,-93,164,-206,2024-01-24 11:10:33,0.0
-13816,-1108,2736,-77,138,-174,2024-01-24 11:10:33,0.0
-13824,-1124,2508,-101,139,-160,2024-01-24 11:10:33,0.0
-13780,-1256,2668,-93,149,-164,2024-01-24 11:10:33,0.0
-13800,-1216,2724,-87,127,-170,2024-01-24 11:10:33,0.0
-13708,-1124,2848,-47,171,-186,2024-01-24 11:10:33,0.0
-13764,-1196,2780,-46,196,-174,2024-01-24 11:10:33,0.0
-13776,-1076,2772,-61,252,-221,2024-01-24 11:10:33,0.0
-13844,-1224,2680,-68,256,-187,2024-01-24 11:10:33,0.0
-13920,-1136,2448,-83,237,-182,2024-01-24 11:10:33,0.0
-13880,-1120,2700,-83,160,-164,2024-01-24 11:10:33,0.0
-13860,-1168,2792,-128,161,-149,2024-01-24 11:10:33,0.0
-13832,-1264,2896,-126,169,-165,2024-01-24 11:10:33,0.0
-13900,-1080,2716,-140,178,-154,2024-01-24 11:10:33,0.0
-13788,-1124,2560,-173,180,-182,2024-01-24 11:10:33,0.0
-13760,-1196,2664,-149,220,-148,2024-01-24 11:10:33,0.0
-13796,-1264,2660,-165,210,-155,2024-01-24 11:10:33,0.0
-13660,-1172,2648,-214,188,-152,2024-01-24 11:10:34,0.0
-13880,-1144,2740,-195,185,-141,2024-01-24 11:10:34,0.0
-13768,-1180,2672,-167,145,-187,2024-01-24 11:10:34,0.0
-13768,-1192,2796,-167,94,-150,2024-01-24 11:10:34,0.0
-13788,-1208,2556,-182,96,-185,2024-01-24 11:10:34,0.0
-13844,-1124,2588,-221,124,-162,2024-01-24 11:10:34,0.0
-13800,-1232,2632,-237,83,-176,2024-01-24 11:10:34,0.0
-13804,-1268,2660,-226,55,-161,2024-01-24 11:10:34,0.0
-13848,-1224,2716,-221,15,-143,2024-01-24 11:10:34,
-13968,-1120,2812,-203,-87,-136,2024-01-24 11:10:34,0.0
-13860,-1104,2728,-227,-148,-106,2024-01-24 11:10:34,0.0
-13976,-1164,2792,-232,-255,-125,2024-01-24 11:10:34,0.0
-13836,-1156,2808,-291,-412,-126,2024-01-24 11:10:34,0.0
-13756,-1192,2960,-275,-364,-113,2024-01-24 11:10:34,0.0
-13740,-1148,2884,-237,-209,-161,2024-01-24 11:10:34,0.0
-13844,-1172,2828,-269,-221,-158,2024-01-24 11:10:34,0.0
-13844,-1208,2892,-309,-292,-164,2024-01-24 11:10:34,0.0
-13792,-1152,3016,-297,-293,-145,2024-01-24 11:10:34,0.0
-13860,-1260,2868,-306,-283,-177,2024-01-24 11:10:34,0.0
-13776,-1180,2960,-286,-259,-124,2024-01-24 11:10:34,0.0
-13780,-1156,3084,-287,-189,-154,2024-01-24 11:10:34,0.0
-13756,-1172,2996,-269,-117,-156,2024-01-24 11:10:34,0.0
-13864,-1280,2968,-217,13,-157,2024-01-24 11:10:34,0.0
-13752,-1168,2984,-245,61,-156,2024-01-24 11:10:34,0.0
-13676,-1200,2972,-217,83,-162,2024-01-24 11:10:34,0.0
-13776,-1244,2984,-192,160,-175,2024-01-24 11:10:34,0.0
-13796,-1272,2920,-169,197,-172,2024-01-24 11:10:34,0.0
-13800,-1260,2940,-162,165,-195,2024-01-24 11:10:34,0.0
-13764,-1204,3020,-152,224,-184,2024-01-24 11:10:34,0.0
-13864,-1180,2980,-140,216,-156,2024-01-24 11:10:34,0.0
-13856,-1168,2944,-158,229,-144,2024-01-24 11:10:34,0.0
-13756,-1164,2920,-172,234,-150,2024-01-24 11:10:34,0.0
-13848,-1192,2992,-182,230,-158,2024-01-24 11:10:34,0.0
-13868,-1204,2952,-181,183,-165,2024-01-24 11:10:34,0.0
-13888,-1180,3036,-158,167,-149,2024-01-24 11:10:34,0.0
-13792,-1096,2972,-182,194,-154,2024-01-24 11:10:34,0.0
-13748,-1208,2984,-185,198,-142,2024-01-24 11:10:34,0.0
-13872,-1236,2940,-198,168,-143,2024-01-24 11:10:34,0.0
-13628,-1148,2928,-157,136,-167,2024-01-24 11:10:34,0.0
-13812,-1212,2960,-146,120,-135,2024-01-24 11:10:34,0.0
-13800,-1192,2996,-156,154,-173,2024-01-24 11:10:34,0.0
-13792,-1160,2924,-180,157,-184,2024-01-24 11:10:34,0.0
-13784,-1076,3040,-187,190,-179,2024-01-24 11:10:34,0.0
-13776,-1212,3052,-192,211,-183,2024-01-24 11:10:34,0.0
-13828,-1056,3124,-231,195,-174,2024-01-24 11:10:34,0.0
-13684,-1248,3148,-181,190,-192,2024-01-24 11:10:34,0.0
-13880,-1204,2948,-207,161,-199,2024-01-24 11:10:34,0.0
-13692,-1108,2964,-198,173,-188,2024-01-24 11:10:34,0.0
-13948,-1116,2976,-238,219,-211,2024-01-24 11:10:34,0.0
-13912,-912,2980,-307,293,-191,2024-01-24 11:10:34,0.0
-13868,-916,3052,-538,421,-173,2024-01-24 11:10:34,0.0
-13940,-804,3244,-714,700,-191,2024-01-24 11:10:34,0.0
-13960,-684,3104,-864,1070,-210,2024-01-24 11:10:34,0.0
-14144,-728,2844,-892,1250,-151,2024-01-24 11:10:34,0.0
-14196,-892,2520,-887,1095,-111,2024-01-24 11:10:34,0.0
-14464,-1108,2456,-945,611,-98,2024-01-24 11:10:34,0.0
-14232,-1360,2364,-918,-48,-190,2024-01-24 11:10:34,0.0
-13868,-1572,2424,-806,-251,-258,2024-01-24 11:10:34,0.0
-13640,-1760,2624,-541,-173,-298,2024-01-24 11:10:34,0.0
-13532,-1776,2680,-339,-240,-367,2024-01-24 11:10:35,0.0
-13128,-1752,2736,-94,-451,-446,2024-01-24 11:10:35,0.0
-12996,-1556,2952,45,-338,-434,2024-01-24 11:10:35,0.0
-13260,-1556,2936,76,-201,-342,2024-01-24 11:10:35,0.0
-13532,-1444,2560,20,-150,-257,2024-01-24 11:10:35,0.0
-13492,-1212,2656,-66,-187,-183,2024-01-24 11:10:35,0.0
-13628,-996,3080,-156,-163,-150,2024-01-24 11:10:35,0.0
-13612,-904,3116,-224,-215,-145,2024-01-24 11:10:35,0.0
-13384,-1032,3500,-274,-219,-194,2024-01-24 11:10:35,0.0
-13020,-1348,3652,-225,-26,-191,2024-01-24 11:10:35,0.0
-13044,-1316,3716,-120,445,-278,2024-01-24 11:10:35,0.0
-13320,-1296,3584,-31,983,-412,2024-01-24 11:10:35,0.0
-13712,-1332,3616,82,1261,-476,2024-01-24 11:10:35,0.0
-14012,-1260,3572,69,1444,-402,2024-01-24 11:10:35,0.0
-14432,-1356,3276,11,1480,-339,2024-01-24 11:10:35,0.0
-14676,-1348,3220,-97,1467,-245,2024-01-24 11:10:35,0.0
-14652,-1376,2780,-110,1157,-109,2024-01-24 11:10:35,0.0
-14380,-1344,2588,-237,769,-29,2024-01-24 11:10:35,0.0
-14204,-1416,2744,-342,474,18,2024-01-24 11:10:35,0.0
-14000,-1448,2880,-305,221,35,2024-01-24 11:10:35,0.0
-13808,-1452,2876,-187,-18,-8,2024-01-24 11:10:35,0.0
-13912,-1276,2892,-63,-210,-81,2024-01-24 11:10:35,0.0
-13532,-1316,2972,66,-226,-173,2024-01-24 11:10:35,0.0
-13504,-1136,2992,197,-95,-301,2024-01-24 11:10:35,0.0
-13584,-1172,2876,209,105,-346,2024-01-24 11:10:35,0.0
-13504,-1252,2860,226,306,-338,2024-01-24 11:10:35,0.0
-13568,-1416,3000,233,396,-324,2024-01-24 11:10:35,0.0
-13492,-1576,2944,147,418,-397,2024-01-24 11:10:35,0.0
-13664,-1380,2824,108,509,-430,2024-01-24 11:10:35,0.0
-13752,-1412,2912,6,644,-392,2024-01-24 11:10:35,0.0
-13876,-1360,2904,-110,701,-367,2024-01-24 11:10:35,0.0
-13980,-1368,2800,-245,637,-290,2024-01-24 11:10:35,0.0
-14096,-1352,2796,-431,493,-269,2024-01-24 11:10:35,0.0
-13828,-1568,2600,-666,437,-321,2024-01-24 11:10:35,0.0
-13884,-1464,2904,-612,462,-428,2024-01-24 11:10:35,0.0
-14168,-1536,2792,-567,176,-646,2024-01-24 11:10:35,0.0
-14024,-1576,2628,-479,-223,-819,2024-01-24 11:10:35,0.0
-14176,-1696,2376,-526,-600,-1048,2024-01-24 11:10:35,0.0
-14152,-1720,2052,-722,-718,-1264,2024-01-24 11:10:35,0.0
-14328,-1912,1944,-681,-700,-1570,2024-01-24 11:10:35,0.0
-14448,-1996,2244,-809,-869,-1683,2024-01-24 11:10:35,0.0
-14272,-1916,3148,-653,-1543,-1449,2024-01-24 11:10:35,0.0
-13572,-2536,3396,-364,-1540,-1076,2024-01-24 11:10:35,0.0
-13176,-2920,3404,38,-743,-923,2024-01-24 11:10:35,0.0
-13860,-1776,3288,109,-570,-635,2024-01-24 11:10:35,0.0
-14152,-2036,3272,-109,-1429,-113,2024-01-24 11:10:35,0.0
-14044,-1944,2972,366,-1269,200,2024-01-24 11:10:35,0.0
-13692,-1828,2960,591,-1044,164,2024-01-24 11:10:35,0.0
-13628,-1660,2524,719,-1127,9,2024-01-24 11:10:35,0.0
-12884,-1112,1332,436,-1481,1139,2024-01-24 11:10:35,
-12660,-200,684,255,-195,1600,2024-01-24 11:10:35,0.0
-12220,-612,592,-86,1138,1744,2024-01-24 11:10:35,0.0
-12912,-848,60,-572,1946,876,2024-01-24 11:10:35,0.0
-11964,-1652,-180,-1726,2443,527,2024-01-24 11:10:35,0.0
-12548,400,1256,-2395,3220,-653,2024-01-24 11:10:35,0.0
-12856,1128,1632,-2979,4448,-738,2024-01-24 11:10:35,0.0
-14548,1132,1160,-3209,5983,-549,2024-01-24 11:10:35,0.0
-15228,-252,3920,-2666,6451,-157,2024-01-24 11:10:35,0.0
-15076,-320,5556,-1555,4374,10,2024-01-24 11:10:35,0.0
-15196,16,4828,-415,2952,606,2024-01-24 11:10:36,0.0
-15556,468,3528,-108,3566,1715,2024-01-24 11:10:36,0.0
-14668,564,3208,-212,3666,2540,2024-01-24 11:10:36,0.0
-13080,124,3468,53,3258,2680,2024-01-24 11:10:36,0.0
-13000,248,3904,575,3014,2558,2024-01-24 11:10:36,0.0
-13024,328,3800,959,2541,2247,2024-01-24 11:10:36,0.0
-12376,4,3108,1377,1685,1600,2024-01-24 11:10:36,0.0
-11192,-152,2224,1733,1216,1055,2024-01-24 11:10:36,0.0
-9772,32,1028,1856,1726,40,2024-01-24 11:10:36,0.0
-9664,516,1252,1841,2916,-934,2024-01-24 11:10:36,0.0
-10760,476,2132,2002,3598,-1576,2024-01-24 11:10:36,0.0
-12400,156,2624,2489,3774,-2005,2024-01-24 11:10:36,0.0
-13488,688,1520,2764,2301,-1954,2024-01-24 11:10:36,0.0
-11780,960,420,3077,973,-1765,2024-01-24 11:10:36,0.0
-11180,1788,208,2431,2100,-999,2024-01-24 11:10:36,0.0
-11716,1916,992,1315,4234,-748,2024-01-24 11:10:36,0.0
-15020,1212,824,697,5426,-498,2024-01-24 11:10:36,0.0
-17524,1032,1412,-35,567,964,2024-01-24 11:10:36,0.0
-13940,1268,1184,-613,-2616,2288,2024-01-24 11:10:36,0.0
-9840,1960,784,-1923,-1626,3066,2024-01-24 11:10:36,0.0
-10048,3304,88,-4055,3666,4339,2024-01-24 11:10:36,0.0
-11844,3200,284,-5735,5294,5278,2024-01-24 11:10:36,0.0
-14652,972,616,-6875,3360,6198,2024-01-24 11:10:36,0.0
-16576,-2328,340,-7259,844,6887,2024-01-24 11:10:36,0.0
-15996,-3928,1516,-7498,-3242,7715,2024-01-24 11:10:36,0.0
-14632,-4976,864,-6635,-3870,8922,2024-01-24 11:10:36,0.0
-10040,-4472,-448,-6515,-1988,9318,2024-01-24 11:10:36,0.0
-9236,-952,1904,-6653,429,9739,2024-01-24 11:10:36,0.0
-11956,180,3592,-6670,-2283,10725,2024-01-24 11:10:36,0.0
-11376,-704,2016,-6758,-6962,11129,2024-01-24 11:10:36,0.0
-10288,-2540,-948,-6385,-9938,9779,2024-01-24 11:10:36,0.0
-11228,-3616,-856,-5887,-9740,8145,2024-01-24 11:10:36,0.0
-12940,-1964,1096,-5313,-9741,6437,2024-01-24 11:10:36,0.0
-12520,-12,2376,-5058,-12214,5088,2024-01-24 11:10:36,0.0
-12840,2088,3604,-5151,-15506,4804,2024-01-24 11:10:36,0.0
-11108,3240,4212,-4878,-16728,5626,2024-01-24 11:10:36,0.0
-10108,3976,4852,-4673,-15295,6940,2024-01-24 11:10:36,0.0
-9996,3612,3908,-5092,-13487,7158,2024-01-24 11:10:36,0.0
-11796,3432,4980,-5378,-12063,7406,2024-01-24 11:10:36,0.0
-15400,3756,6836,-5463,-14436,8440,2024-01-24 11:10:36,0.0
-15220,2500,6856,-4660,-15068,9272,2024-01-24 11:10:36,0.0
-13508,3996,5748,-4578,-12453,7764,2024-01-24 11:10:36,0.0
-15528,5772,6884,-4568,-9334,5968,2024-01-24 11:10:36,0.0
-15324,6324,7684,-4465,-8265,5128,2024-01-24 11:10:36,0.0
-15204,7168,8864,-4393,-8056,5142,2024-01-24 11:10:36,0.0
-13680,7304,9168,-4158,-7470,5081,2024-01-24 11:10:36,0.0
-12524,6224,9476,-3569,-7001,4977,2024-01-24 11:10:36,0.0
-14512,6460,11628,-3092,-6648,4569,2024-01-24 11:10:36,0.0
-14156,7372,11496,-3070,-5380,3482,2024-01-24 11:10:36,0.0
-14268,8428,11800,-2998,-4466,2814,2024-01-24 11:10:36,0.0
-14620,9188,12352,-2831,-3346,2397,2024-01-24 11:10:36,0.0
-14584,8656,11864,-2324,-2078,2323,2024-01-24 11:10:36,0.0
-15148,8316,13156,-1704,-1256,2184,2024-01-24 11:10:36,0.0
-14388,8104,13656,-881,-1042,1755,2024-01-24 11:10:36,0.0
-14028,8808,13624,-276,-256,1189,2024-01-24 11:10:36,0.0
-13984,8692,13344,219,306,747,2024-01-24 11:10:36,0.0
-14188,9316,13584,476,418,323,2024-01-24 11:10:36,0.0
-14004,8812,13340,891,652,-183,2024-01-24 11:10:36,0.0
-13888,8444,13220,1167,1437,-838,2024-01-24 11:10:36,0.0
-13868,8140,12968,886,2086,-1731,2024-01-24 11:10:37,0.0
-13364,7820,12276,431,2940,-2618,2024-01-24 11:10:37,0.0
-13024,7588,12280,193,4029,-3440,2024-01-24 11:10:37,0.0
-12916,6972,11900,276,5018,-4493,2024-01-24 11:10:37,0.0
-12872,6656,11932,395,5837,-5494,2024-01-24 11:10:37,0.0
-12572,6140,11536,652,6225,-6497,2024-01-24 11:10:37,0.0
-12676,5940,11160,827,6254,-7044,2024-01-24 11:10:37,0.0
-12584,5200,10772,1159,6229,-7594,2024-01-24 11:10:37,0.0
-12692,4660,10508,1525,6315,-8244,2024-01-24 11:10:37,0.0
-12308,3832,9696,1941,6705,-8925,2024-01-24 11:10:37,0.0
-11916,3724,9368,2334,6961,-9555,2024-01-24 11:10:37,0.0
-11796,3792,8844,2718,7075,-9933,2024-01-24 11:10:37,0.0
-11520,3592,8544,2964,7287,-10321,2024-01-24 11:10:37,0.0
-11516,3192,8140,3213,7862,-10586,2024-01-24 11:10:37,0.0
-11464,3068,7808,3552,8826,-10795,2024-01-24 11:10:37,0.0
-11596,2584,7496,3976,9731,-10623,2024-01-24 11:10:37,0.0
-11532,2096,6908,4414,10493,-10346,2024-01-24 11:10:37,0.0
-11816,1664,6788,4658,11074,-10025,2024-01-24 11:10:37,0.0
-12152,860,6548,4878,11429,-9689,2024-01-24 11:10:37,0.0
-12436,632,6152,5160,10541,-9005,2024-01-24 11:10:37,0.0
-12808,400,5964,5261,9058,-8344,2024-01-24 11:10:37,0.0
-12864,304,5532,5253,7176,-7714,2024-01-24 11:10:37,0.0
-12636,160,5352,5306,5513,-7190,2024-01-24 11:10:37,0.0
-12356,-352,5020,5629,4019,-6611,2024-01-24 11:10:37,0.0
-11884,-428,4916,5788,3115,-6136,2024-01-24 11:10:37,0.0
-12180,-220,4984,5774,2831,-5828,2024-01-24 11:10:37,0.0
-12348,-372,5128,5933,2596,-5251,2024-01-24 11:10:37,0.0
-12276,-1020,4204,6037,2562,-5053,2024-01-24 11:10:37,0.0
-12800,-1340,3524,6123,2262,-5041,2024-01-24 11:10:37,0.0
-13340,-1328,3044,6562,1212,-4577,2024-01-24 11:10:37,0.0
-12616,-1956,2204,7022,-12,-4070,2024-01-24 11:10:37,0.0
-11644,-2324,2660,7292,-1059,-4268,2024-01-24 11:10:37,
-11368,-2340,2964,7813,-1439,-4815,2024-01-24 11:10:37,0.0
-11016,-2156,2996,8338,-1656,-5240,2024-01-24 11:10:37,0.0
-10976,-2252,3168,8787,-2153,-5485,2024-01-24 11:10:37,0.0
-10884,-2316,3064,9369,-2179,-5522,2024-01-24 11:10:37,0.0
-11928,-2004,1900,9691,-1556,-4863,2024-01-24 11:10:37,0.0
-12864,-1508,1016,9747,-926,-3787,2024-01-24 11:10:37,0.0
-13716,-1136,1288,9448,-756,-3281,2024-01-24 11:10:37,0.0
-13956,-1652,1640,9017,-1751,-3312,2024-01-24 11:10:37,0.0
-14192,-2112,1708,8400,-2687,-3110,2024-01-24 11:10:37,0.0
-12924,-1476,1704,8005,-2699,-2665,2024-01-24 11:10:37,0.0
-11624,-700,1872,7542,-1565,-2415,2024-01-24 11:10:37,0.0
-11548,-496,2764,6863,415,-1986,2024-01-24 11:10:37,0.0
-12276,-1020,2768,5997,1507,-1443,2024-01-24 11:10:37,0.0
-12524,-1992,3240,5225,1396,-1318,2024-01-24 11:10:37,0.0
-13272,-1572,3596,4497,1154,-1079,2024-01-24 11:10:37,0.0
-13880,-1396,4352,3980,1308,-407,2024-01-24 11:10:37,0.0
-14228,-2176,4828,3568,145,8,2024-01-24 11:10:37,0.0
-14812,-2308,4592,3381,-831,362,2024-01-24 11:10:37,0.0
-13936,-2564,4416,3084,-2067,297,2024-01-24 11:10:37,0.0
-14020,-2764,3568,3043,-2633,578,2024-01-24 11:10:37,0.0
-12684,-2712,2808,2963,-2417,634,2024-01-24 11:10:37,0.0
-12208,-2652,2404,2766,-1692,623,2024-01-24 11:10:37,0.0
-11892,-1808,3328,2680,-1268,573,2024-01-24 11:10:37,0.0
-13404,-804,4188,2723,-408,727,2024-01-24 11:10:37,0.0
-14540,-144,5072,2770,-784,774,2024-01-24 11:10:37,0.0
-15500,520,5172,2646,-2095,794,2024-01-24 11:10:37,0.0
-14496,708,5204,2305,-3281,1049,2024-01-24 11:10:37,0.0
-12868,-328,4644,2212,-3419,931,2024-01-24 11:10:37,0.0
-11020,-2256,2812,1942,-2038,122,2024-01-24 11:10:38,0.0
-10836,-3640,2312,1673,1078,-714,2024-01-24 11:10:38,0.0
-10836,-4392,2208,1342,2465,-1325,2024-01-24 11:10:38,0.0
-12344,-3840,3876,1705,3811,-1549,2024-01-24 11:10:38,0.0
-14088,-1620,4048,1909,3060,-901,2024-01-24 11:10:38,0.0
-15448,8,3960,1615,2404,-711,2024-01-24 11:10:38,0.0
-16208,280,4148,1001,309,-181,2024-01-24 11:10:38,0.0
-14656,304,3876,273,-1116,408,2024-01-24 11:10:38,0.0
-13168,700,3312,-427,-1036,841,2024-01-24 11:10:38,0.0
-11808,184,2756,-1161,383,804,2024-01-24 11:10:38,0.0
-11000,-724,2756,-1577,2983,337,2024-01-24 11:10:38,0.0
-11968,-1240,4324,-1585,5191,73,2024-01-24 11:10:38,0.0
-13820,-1396,5708,-1381,5239,-51,2024-01-24 11:10:38,0.0
-15000,-1776,6332,-944,3382,-79,2024-01-24 11:10:38,0.0
-15072,-2276,5812,-381,1590,-65,2024-01-24 11:10:38,0.0
-14688,-2492,5516,146,234,44,2024-01-24 11:10:38,0.0
-13972,-2368,4724,469,-729,-23,2024-01-24 11:10:38,0.0
-13364,-1784,4236,709,-797,-113,2024-01-24 11:10:38,0.0
-13512,-1132,3832,756,-524,42,2024-01-24 11:10:38,0.0
-13756,-400,3488,607,-377,248,2024-01-24 11:10:38,0.0
-13652,204,3132,142,-7,541,2024-01-24 11:10:38,0.0
-14080,420,3476,-229,373,686,2024-01-24 11:10:38,0.0
-14708,316,3932,-734,244,747,2024-01-24 11:10:38,0.0
-14540,-168,4288,-1047,-346,748,2024-01-24 11:10:38,0.0
-14120,-684,4160,-1249,-700,708,2024-01-24 11:10:38,0.0
-13384,-724,4260,-1533,-644,671,2024-01-24 11:10:38,0.0
-13224,-668,4384,-1712,-236,654,2024-01-24 11:10:38,0.0
-13020,-908,4456,-1925,1,572,2024-01-24 11:10:38,0.0
-12976,-764,4552,-1983,441,515,2024-01-24 11:10:38,0.0
-13024,-856,4504,-2100,911,461,2024-01-24 11:10:38,0.0
-12884,-1080,4404,-2170,1290,318,2024-01-24 11:10:38,0.0
-13240,-880,4876,-2112,1654,166,2024-01-24 11:10:38,0.0
-13756,-708,5116,-2055,1542,44,2024-01-24 11:10:38,0.0
-13992,-784,4952,-1938,1259,25,2024-01-24 11:10:38,0.0
-13960,-860,4748,-1913,996,40,2024-01-24 11:10:38,0.0
-13752,-836,4552,-1853,921,12,2024-01-24 11:10:38,0.0
-13736,-712,4472,-1823,970,-51,2024-01-24 11:10:38,0.0
-13964,-668,4468,-1808,1012,-85,2024-01-24 11:10:38,0.0
-14040,-444,4492,-1804,776,-57,2024-01-24 11:10:38,0.0
-13988,-504,4308,-1869,591,57,2024-01-24 11:10:38,0.0
-13920,-540,4388,-1901,374,193,2024-01-24 11:10:38,0.0
-13736,-540,4492,-1955,120,240,2024-01-24 11:10:38,0.0
-13968,-340,4440,-1948,-169,313,2024-01-24 11:10:38,0.0
-13888,-396,4376,-2012,-586,405,2024-01-24 11:10:38,0.0
-13396,-676,4196,-1944,-1123,413,2024-01-24 11:10:38,0.0
-13044,-948,4132,-1663,-1265,416,2024-01-24 11:10:38,0.0
-12824,-1164,4352,-1403,-886,341,2024-01-24 11:10:38,0.0
-13080,-1252,4480,-1124,-105,185,2024-01-24 11:10:38,0.0
-13416,-1280,4724,-943,724,127,2024-01-24 11:10:38,0.0
-13588,-1000,4492,-849,852,31,2024-01-24 11:10:38,0.0
-13644,-780,4492,-779,569,-13,2024-01-24 11:10:38,0.0
-13704,-824,4416,-666,405,32,2024-01-24 11:10:38,0.0
-13464,-720,4324,-669,356,30,2024-01-24 11:10:38,0.0
-13656,-788,4244,-610,196,3,2024-01-24 11:10:38,0.0
-13712,-772,4244,-565,-208,-9,2024-01-24 11:10:38,0.0
-13560,-728,4452,-533,-299,-13,2024-01-24 11:10:38,0.0
-13580,-556,4836,-532,-43,-47,2024-01-24 11:10:38,0.0
-13756,-668,4724,-574,182,-69,2024-01-24 11:10:38,0.0
-13964,-740,4640,-576,193,-93,2024-01-24 11:10:38,0.0
-13756,-464,4660,-605,28,-70,2024-01-24 11:10:39,0.0
-13808,-424,4216,-583,-91,-58,2024-01-24 11:10:39,0.0
-13628,-412,4140,-642,-97,-36,2024-01-24 11:10:39,0.0
-13608,-260,4204,-741,119,-9,2024-01-24 11:10:39,0.0
-13724,-304,4228,-863,122,-51,2024-01-24 11:10:39,0.0
-13800,-208,4068,-870,-96,56,2024-01-24 11:10:39,0.0
-14028,-384,4088,-874,-382,218,2024-01-24 11:10:39,0.0
-13756,-472,3912,-877,-558,341,2024-01-24 11:10:39,0.0
-13540,-636,4016,-820,-516,450,2024-01-24 11:10:39,0.0
-13556,-864,4104,-735,-268,459,2024-01-24 11:10:39,0.0
-13704,-1024,4412,-556,75,393,2024-01-24 11:10:39,0.0
-13700,-1024,4288,-460,181,364,2024-01-24 11:10:39,0.0
-13640,-1388,4200,-360,197,364,2024-01-24 11:10:39,
-13612,-1196,4220,-236,440,230,2024-01-24 11:10:39,0.0
-13716,-1128,4352,-71,483,70,2024-01-24 11:10:39,0.0
-13528,-764,4232,28,480,41,2024-01-24 11:10:39,0.0
-13884,-780,4236,-22,736,75,2024-01-24 11:10:39,0.0
-13736,-868,4356,-50,691,104,2024-01-24 11:10:39,0.0
-13828,-920,4332,-105,548,101,2024-01-24 11:10:39,0.0
-13580,-872,4364,-218,463,99,2024-01-24 11:10:39,0.0
-13208,-880,4612,-247,581,2,2024-01-24 11:10:39,0.0
-13532,-668,4568,-244,737,-166,2024-01-24 11:10:39,0.0
-13716,-436,4412,-261,449,-225,2024-01-24 11:10:39,0.0
-13548,-348,4340,-348,377,-261,2024-01-24 11:10:39,0.0
-13612,-304,3912,-512,769,-310,2024-01-24 11:10:39,0.0
-13948,-264,4028,-638,751,-269,2024-01-24 11:10:39,0.0
-13932,-164,4144,-821,440,-241,2024-01-24 11:10:39,0.0
-13812,124,4000,-997,362,-162,2024-01-24 11:10:39,0.0
-13752,176,3952,-1199,333,-73,2024-01-24 11:10:39,0.0
-13828,68,3936,-1387,406,9,2024-01-24 11:10:39,0.0
-13676,24,4116,-1525,534,135,2024-01-24 11:10:39,0.0
-13812,72,3992,-1702,546,214,2024-01-24 11:10:39,0.0
-13768,24,4004,-1867,461,312,2024-01-24 11:10:39,0.0
-13800,24,4092,-1984,409,352,2024-01-24 11:10:39,0.0
-13644,92,3924,-2104,399,325,2024-01-24 11:10:39,0.0
-13668,-88,3956,-2202,223,314,2024-01-24 11:10:39,0.0
-13608,-144,3964,-2311,158,257,2024-01-24 11:10:39,0.0
-13680,-228,3876,-2430,180,236,2024-01-24 11:10:39,0.0
-13784,-276,3936,-2523,230,222,2024-01-24 11:10:39,0.0
-13824,-336,4096,-2569,242,202,2024-01-24 11:10:39,0.0
-13724,-524,4344,-2596,193,183,2024-01-24 11:10:39,0.0
-13780,-616,4288,-2542,139,173,2024-01-24 11:10:39,0.0
-13752,-724,4076,-2534,105,158,2024-01-24 11:10:39,0.0
-13728,-772,4108,-2465,83,127,2024-01-24 11:10:39,0.0
-13756,-820,4424,-2359,92,147,2024-01-24 11:10:39,0.0
-13896,-920,4368,-2231,40,155,2024-01-24 11:10:39,0.0
-13756,-1004,4412,-2115,60,133,2024-01-24 11:10:39,0.0
-13808,-1064,4340,-1950,81,105,2024-01-24 11:10:39,0.0
-13856,-1072,4336,-1752,136,88,2024-01-24 11:10:39,0.0
-13680,-1036,4480,-1496,160,27,2024-01-24 11:10:39,0.0
-13772,-1120,4544,-1298,166,-13,2024-01-24 11:10:39,0.0
-13824,-988,4468,-1033,83,-113,2024-01-24 11:10:39,0.0
-13592,-988,4536,-784,91,-117,2024-01-24 11:10:39,0.0
-13668,-992,4388,-590,175,-118,2024-01-24 11:10:39,0.0
-13508,-980,4484,-434,247,-186,2024-01-24 11:10:39,0.0
-13576,-720,4364,-205,433,-177,2024-01-24 11:10:39,0.0
-13540,-732,4424,-55,401,-175,2024-01-24 11:10:39,0.0
-13416,-660,4364,101,515,-221,2024-01-24 11:10:39,0.0
-13524,-644,4252,200,641,-212,2024-01-24 11:10:39,0.0
-13628,-364,4412,366,790,-194,2024-01-24 11:10:39,0.0
-13844,-444,4344,445,838,-155,2024-01-24 11:10:40,0.0
-13828,-392,4544,608,635,-152,2024-01-24 11:10:40,0.0
-13712,-368,4672,714,292,-154,2024-01-24 11:10:40,0.0
-13520,-408,4532,813,106,-228,2024-01-24 11:10:40,0.0
-13476,-568,4516,927,131,-335,2024-01-24 11:10:40,0.0
-13652,-496,4488,978,245,-453,2024-01-24 11:10:40,0.0
-13680,-488,4416,1012,257,-527,2024-01-24 11:10:40,0.0
-13836,-396,4284,929,215,-555,2024-01-24 11:10:40,0.0
-13696,-432,4104,801,176,-593,2024-01-24 11:10:40,0.0
-13652,-336,4000,742,214,-594,2024-01-24 11:10:40,0.0
-13528,-264,3892,583,351,-598,2024-01-24 11:10:40,0.0
-13660,-328,3836,496,506,-507,2024-01-24 11:10:40,0.0
-13720,-352,3740,392,570,-454,2024-01-24 11:10:40,0.0
-13772,-560,3928,353,387,-414,2024-01-24 11:10:40,0.0
-13868,-560,3868,320,318,-386,2024-01-24 11:10:40,0.0
-13624,-668,3948,322,300,-362,2024-01-24 11:10:40,0.0
-13728,-556,3744,349,424,-355,2024-01-24 11:10:40,0.0
-13820,-576,3728,370,441,-324,2024-01-24 11:10:40,0.0
-13800,-576,3644,395,464,-296,2024-01-24 11:10:40,0.0
-13784,-572,3712,397,503,-357,2024-01-24 11:10:40,0.0
-13748,-572,3716,428,530,-372,2024-01-24 11:10:40,0.0
-13736,-576,3608,430,600,-354,2024-01-24 11:10:40,0.0
-13640,-580,3796,378,551,-383,2024-01-24 11:10:40,0.0
-13868,-596,3820,350,497,-408,2024-01-24 11:10:40,0.0
-13844,-580,3788,295,458,-392,2024-01-24 11:10:40,0.0
-13820,-488,3756,234,419,-332,2024-01-24 11:10:40,0.0
-13872,-592,3708,120,379,-309,2024-01-24 11:10:40,0.0
-13788,-592,3896,23,382,-270,2024-01-24 11:10:40,0.0
-13672,-592,3828,-36,444,-221,2024-01-24 11:10:40,0.0
-13816,-432,3600,-154,498,-185,2024-01-24 11:10:40,0.0
-13756,-544,3692,-223,552,-193,2024-01-24 11:10:40,0.0
-13724,-508,3556,-303,510,-168,2024-01-24 11:10:40,0.0
-13752,-616,3716,-424,494,-150,2024-01-24 11:10:40,0.0
-13800,-548,3756,-482,474,-134,2024-01-24 11:10:40,0.0
-13876,-604,3568,-551,486,-153,2024-01-24 11:10:40,0.0
-13724,-576,3580,-549,429,-116,2024-01-24 11:10:40,0.0
-13828,-612,3804,-569,410,-132,2024-01-24 11:10:40,0.0
-13784,-612,3772,-574,329,-137,2024-01-24 11:10:40,0.0
-13864,-724,3796,-559,305,-140,2024-01-24 11:10:40,0.0
-13788,-792,3772,-523,309,-146,2024-01-24 11:10:40,0.0
-13688,-764,3772,-442,312,-180,2024-01-24 11:10:40,0.0
-13716,-780,3908,-402,234,-149,2024-01-24 11:10:40,0.0
-13600,-704,3804,-378,219,-139,2024-01-24 11:10:40,0.0
-13792,-800,3912,-270,251,-122,2024-01-24 11:10:40,0.0
-13776,-704,3760,-276,299,-152,2024-01-24 11:10:40,0.0
-13628,-628,3876,-219,287,-162,2024-01-24 11:10:40,0.0
-13720,-692,3812,-230,335,-144,2024-01-24 11:10:40,0.0
-13812,-600,3776,-168,336,-164,2024-01-24 11:10:40,0.0
-13808,-616,3852,-122,373,-198,2024-01-24 11:10:40,0.0
-13860,-608,3892,-135,383,-219,2024-01-24 11:10:40,0.0
-13792,-592,3860,-115,255,-175,2024-01-24 11:10:40,0.0
-13860,-664,3896,-123,187,-180,2024-01-24 11:10:40,0.0
-13844,-508,3780,-116,200,-199,2024-01-24 11:10:40,
-13680,-560,3808,-127,245,-180,2024-01-24 11:10:40,0.0
-13660,-564,3948,-137,244,-192,2024-01-24 11:10:40,0.0
-13764,-612,3700,-178,289,-168,2024-01-24 11:10:40,0.0
-13832,-624,3904,-169,277,-168,2024-01-24 11:10:40,0.0
-13756,-680,3896,-178,220,-187,2024-01-24 11:10:40,0.0
-13912,-716,3916,-165,183,-164,2024-01-24 11:10:40,0.0
-13904,-716,4016,-145,110,-174,2024-01-24 11:10:40,0.0
-13752,-624,3912,-115,11,-169,2024-01-24 11:10:41,0.0
-13740,-660,3932,-52,11,-166,2024-01-24 11:10:41,0.0
-13684,-656,3820,-10,25,-185,2024-01-24 11:10:41,0.0
-13708,-504,3896,14,34,-199,2024-01-24 11:10:41,0.0
-13708,-596,3796,9,58,-218,2024-01-24 11:10:41,0.0
-13816,-752,4068,34,68,-250,2024-01-24 11:10:41,0.0
-13768,-608,3872,52,107,-232,2024-01-24 11:10:41,0.0
-13872,-532,3856,105,143,-213,2024-01-24 11:10:41,0.0
-13680,-552,3864,76,143,-194,2024-01-24 11:10:41,0.0
-13580,-536,3996,68,106,-183,2024-01-24 11:10:41,0.0
-13616,-532,3828,20,132,-185,2024-01-24 11:10:41,0.0
-13688,-600,4112,21,76,-223,2024-01-24 11:10:41,0.0
-13560,-552,4196,-27,33,-213,2024-01-24 11:10:41,0.0
-13540,-436,4032,-65,21,-219,2024-01-24 11:10:41,0.0
-13576,-568,4052,-43,93,-250,2024-01-24 11:10:41,0.0
-13560,-608,4000,-53,256,-241,2024-01-24 11:10:41,0.0
-13560,-500,3968,-134,421,-237,2024-01-24 11:10:41,0.0
-13636,-524,3752,-182,491,-261,2024-01-24 11:10:41,0.0
-13668,-696,3772,-218,544,-285,2024-01-24 11:10:41,0.0
-13804,-648,3880,-246,569,-294,2024-01-24 11:10:41,0.0
-13868,-624,3848,-271,527,-296,2024-01-24 11:10:41,0.0
-13832,-620,3904,-300,365,-265,2024-01-24 11:10:41,0.0
-13788,-716,3800,-320,284,-223,2024-01-24 11:10:41,0.0
-13840,-760,3960,-321,251,-234,2024-01-24 11:10:41,0.0
-13808,-728,3724,-336,271,-260,2024-01-24 11:10:41,0.0
-13748,-588,4036,-276,281,-274,2024-01-24 11:10:41,0.0
-13804,-696,3644,-246,197,-254,2024-01-24 11:10:41,0.0
-13684,-628,3744,-301,162,-266,2024-01-24 11:10:41,0.0
-13644,-596,3956,-258,272,-263,2024-01-24 11:10:41,0.0
-13720,-632,3884,-286,288,-286,2024-01-24 11:10:41,0.0
-13716,-732,3900,-281,270,-274,2024-01-24 11:10:41,0.0
-13660,-668,3820,-308,255,-236,2024-01-24 11:10:41,0.0
-13800,-552,3848,-295,189,-203,2024-01-24 11:10:41,0.0
-13652,-632,3952,-331,216,-162,2024-01-24 11:10:41,0.0
-13776,-688,3728,-352,244,-186,2024-01-24 11:10:41,0.0
-13716,-708,3848,-355,230,-157,2024-01-24 11:10:41,0.0
-13700,-668,3792,-402,265,-149,2024-01-24 11:10:41,0.0
-13784,-632,3984,-373,243,-173,2024-01-24 11:10:41,0.0
-13792,-660,3756,-358,198,-170,2024-01-24 11:10:41,0.0
-13840,-644,3816,-324,181,-164,2024-01-24 11:10:41,0.0
-13792,-608,3840,-320,152,-158,2024-01-24 11:10:41,0.0
-13964,-612,3812,-387,142,-160,2024-01-24 11:10:41,0.0
-13828,-656,3856,-354,117,-118,2024-01-24 11:10:41,0.0
-13656,-584,3668,-360,123,-122,2024-01-24 11:10:41,0.0
-13812,-548,3796,-372,148,-117,2024-01-24 11:10:41,0.0
-13680,-544,3780,-371,157,-131,2024-01-24 11:10:41,0.0
-13744,-664,3752,-361,166,-106,2024-01-24 11:10:41,0.0
-13720,-708,3836,-315,209,-123,2024-01-24 11:10:41,0.0
-13636,-748,3780,-318,215,-153,2024-01-24 11:10:41,0.0
-13684,-636,3752,-287,230,-141,2024-01-24 11:10:41,0.0
-13772,-728,3972,-259,261,-149,2024-01-24 11:10:41,0.0
-13684,-628,3804,-257,247,-170,2024-01-24 11:10:41,0.0
-13720,-640,3776,-222,265,-159,2024-01-24 11:10:41,0.0
-13660,-680,3748,-228,265,-141,2024-01-24 11:10:41,0.0
-13732,-600,3672,-213,324,-121,2024-01-24 11:10:41,0.0
-13896,-556,3816,-225,280,-131,2024-01-24 11:10:41,0.0
-13744,-716,3728,-174,176,-108,2024-01-24 11:10:41,0.0
-13812,-592,3840,-161,156,-105,2024-01-24 11:10:41,0.0
-13760,-648,3764,-175,188,-134,2024-01-24 11:10:41,0.0
-13788,-632,3904,-146,182,-149,2024-01-24 11:10:42,0.0
-13636,-684,3844,-139,274,-152,2024-01-24 11:10:42,0.0
-13780,-676,3820,-159,246,-170,2024-01-24 11:10:42,0.0
-13652,-592,3940,-153,182,-156,2024-01-24 11:10:42,0.0
-13792,-692,3744,-170,159,-177,2024-01-24 11:10:42,0.0
-13696,-584,3732,-168,161,-177,2024-01-24 11:10:42,0.0
-13756,-564,3736,-222,196,-173,2024-01-24 11:10:42,0.0
-13820,-588,3816,-207,255,-145,2024-01-24 11:10:42,0.0
-13712,-636,3788,-189,236,-137,2024-01-24 11:10:42,0.0
-13828,-704,3700,-193,187,-140,2024-01-24 11:10:42,0.0
-13740,-604,3708,-185,284,-143,2024-01-24 11:10:42,0.0
-13640,-616,3852,-199,310,-161,2024-01-24 11:10:42,0.0
-13692,-616,3796,-194,330,-159,2024-01-24 11:10:42,0.0
-13780,-692,3744,-201,285,-162,2024-01-24 11:10:42,0.0
-13820,-620,3848,-199,263,-188,2024-01-24 11:10:42,0.0
-13832,-588,3788,-185,284,-150,2024-01-24 11:10:42,0.0
-13784,-596,3848,-174,244,-150,2024-01-24 11:10:42,0.0
-13784,-556,3712,-179,229,-126,2024-01-24 11:10:42,0.0
-13632,-540,3728,-186,236,-164,2024-01-24 11:10:42,0.0
-13628,-616,3940,-203,226,-145,2024-01-24 11:10:42,0.0
-13724,-688,3736,-187,235,-154,2024-01-24 11:10:42,0.0
-13720,-568,3808,-186,252,-174,2024-01-24 11:10:42,0.0
-13784,-648,3728,-219,274,-203,2024-01-24 11:10:42,0.0
-13692,-564,3780,-266,321,-200,2024-01-24 11:10:42,0.0
-13724,-660,3784,-283,286,-230,2024-01-24 11:10:42,0.0
-13756,-592,3832,-273,310,-212,2024-01-24 11:10:42,0.0
-13828,-648,3760,-278,305,-200,2024-01-24 11:10:42,0.0
-13852,-700,3872,-321,333,-205,2024-01-24 11:10:42,0.0
-13828,-760,3636,-264,270,-195,2024-01-24 11:10:42,0.0
-13760,-688,3856,-268,260,-161,2024-01-24 11:10:42,0.0
-13716,-752,3984,-226,245,-176,2024-01-24 11:10:42,0.0
-13800,-688,3820,-225,267,-179,2024-01-24 11:10:42,0.0
-13740,-636,3884,-173,251,-172,2024-01-24 11:10:42,0.0
-13728,-724,3904,-148,258,-151,2024-01-24 11:10:42,
-13708,-568,3872,-179,314,-177,2024-01-24 11:10:42,0.0
-13832,-724,3784,-183,324,-182,2024-01-24 11:10:42,0.0
-13748,-664,3864,-158,317,-214,2024-01-24 11:10:42,0.0
-13776,-740,3868,-157,293,-207,2024-01-24 11:10:42,0.0
-13772,-600,3760,-143,215,-182,2024-01-24 11:10:42,0.0
-13728,-680,3680,-133,196,-185,2024-01-24 11:10:42,0.0
-13676,-680,3824,-126,242,-178,2024-01-24 11:10:42,0.0
-13728,-624,3656,-128,237,-185,2024-01-24 11:10:42,0.0
-13764,-576,3840,-146,254,-190,2024-01-24 11:10:42,0.0
-13756,-780,3920,-110,242,-201,2024-01-24 11:10:42,0.0
-13864,-604,3732,-107,177,-192,2024-01-24 11:10:42,0.0
-13664,-576,3800,-116,174,-224,2024-01-24 11:10:42,0.0
-13832,-728,3676,-109,137,-198,2024-01-24 11:10:42,0.0
-13764,-724,3780,-109,110,-197,2024-01-24 11:10:42,0.0
-13752,-760,3656,-91,120,-235,2024-01-24 11:10:42,0.0
-13704,-720,3752,-59,144,-236,2024-01-24 11:10:42,0.0
-13768,-744,3820,-49,162,-225,2024-01-24 11:10:42,0.0
-13756,-688,3708,-47,201,-245,2024-01-24 11:10:42,0.0
-13804,-776,3804,-23,252,-245,2024-01-24 11:10:42,0.0
-13740,-812,3764,-3,274,-267,2024-01-24 11:10:42,0.0
-13672,-744,3708,-5,266,-263,2024-01-24 11:10:42,0.0
-13756,-708,3808,39,243,-262,2024-01-24 11:10:42,0.0
-13748,-676,3848,39,259,-278,2024-01-24 11:10:42,0.0
-13736,-720,3756,5,277,-259,2024-01-24 11:10:42,0.0
-13840,-640,3676,13,275,-240,2024-01-24 11:10:42,0.0
-13744,-608,3756,-11,281,-243,2024-01-24 11:10:42,0.0
-13740,-692,3800,-3,271,-216,2024-01-24 11:10:43,0.0
-13784,-612,3784,-23,270,-223,2024-01-24 11:10:43,0.0
-13776,-564,3720,23,285,-196,2024-01-24 11:10:43,0.0
-13748,-668,3744,-15,271,-233,2024-01-24 11:10:43,0.0
-13780,-616,3664,5,249,-219,2024-01-24 11:10:43,0.0
-13772,-656,3720,-4,246,-176,2024-01-24 11:10:43,0.0
-13780,-684,3516,-61,225,-217,2024-01-24 11:10:43,0.0
-13696,-584,3724,-92,280,-217,2024-01-24 11:10:43,0.0
-13840,-636,3696,-143,288,-175,2024-01-24 11:10:43,0.0
-13764,-620,3724,-164,226,-155,2024-01-24 11:10:43,0.0
-13732,-576,3792,-226,243,-126,2024-01-24 11:10:43,0.0
-13764,-640,3784,-279,304,-121,2024-01-24 11:10:43,0.0
-13636,-652,3764,-278,375,-127,2024-01-24 11:10:43,0.0
-13828,-700,3808,-297,399,-131,2024-01-24 11:10:43,0.0
-13740,-596,3684,-259,320,-130,2024-01-24 11:10:43,0.0
-13808,-652,3756,-239,213,-141,2024-01-24 11:10:43,0.0
-13744,-856,3708,-179,190,-158,2024-01-24 11:10:43,0.0
-13700,-768,3832,-178,236,-158,2024-01-24 11:10:43,0.0
-13732,-708,3852,-186,278,-160,2024-01-24 11:10:43,0.0
-13744,-652,3688,-172,297,-182,2024-01-24 11:10:43,0.0
-13824,-792,3508,-115,255,-154,2024-01-24 11:10:43,0.0
-13740,-744,3696,-133,224,-139,2024-01-24 11:10:43,0.0
-13732,-612,3848,-109,298,-154,2024-01-24 11:10:43,0.0
-13856,-644,3664,-126,267,-177,2024-01-24 11:10:43,0.0
-13744,-768,3624,-170,182,-135,2024-01-24 11:10:43,0.0
-13720,-736,3788,-116,191,-177,2024-01-24 11:10:43,0.0
-13772,-588,3648,-98,202,-147,2024-01-24 11:10:43,0.0
-13696,-640,3548,-97,226,-166,2024-01-24 11:10:43,0.0
-13740,-552,3796,-114,226,-193,2024-01-24 11:10:43,0.0
-13752,-600,3772,-126,290,-167,2024-01-24 11:10:43,0.0
-13660,-652,3820,-67,289,-173,2024-01-24 11:10:43,0.0
-13668,-752,3584,-112,322,-178,2024-01-24 11:10:43,0.0
-13712,-632,3736,-97,321,-184,2024-01-24 11:10:43,0.0
-13768,-616,3516,-84,345,-178,2024-01-24 11:10:43,0.0
-13740,-584,3544,-101,375,-167,2024-01-24 11:10:43,0.0
-13820,-692,3464,-111,385,-164,2024-01-24 11:10:43,0.0
-13788,-616,3452,-83,361,-156,2024-01-24 11:10:43,0.0
-13828,-668,3548,-88,359,-143,2024-01-24 11:10:43,0.0
-13896,-572,3680,-88,312,-113,2024-01-24 11:10:43,0.0
-13736,-580,3584,-137,328,-126,2024-01-24 11:10:43,0.0
-13720,-604,3544,-123,283,-127,2024-01-24 11:10:43,0.0
-13820,-624,3700,-88,231,-116,2024-01-24 11:10:43,0.0
-13824,-592,3608,-139,274,-119,2024-01-24 11:10:43,0.0
-13696,-520,3484,-164,301,-120,2024-01-24 11:10:43,0.0
-13720,-524,3644,-149,286,-125,2024-01-24 11:10:43,0.0
-13808,-504,3724,-216,269,-116,2024-01-24 11:10:43,0.0
-13772,-608,3772,-234,275,-115,2024-01-24 11:10:43,0.0
-13748,-612,3688,-247,286,-91,2024-01-24 11:10:43,0.0
-13728,-460,3700,-307,329,-110,2024-01-24 11:10:43,0.0
-13712,-560,3596,-351,334,-98,2024-01-24 11:10:43,0.0
-13736,-468,3568,-382,325,-103,2024-01-24 11:10:43,0.0
-13692,-620,3584,-407,348,-82,2024-01-24 11:10:43,0.0
-13724,-472,3560,-437,382,-85,2024-01-24 11:10:43,0.0
-13668,-528,3732,-436,398,-80,2024-01-24 11:10:43,0.0
-13832,-644,3748,-462,393,-146,2024-01-24 11:10:43,0.0
-13888,-564,3840,-440,310,-117,2024-01-24 11:10:43,0.0
-13812,-660,3720,-416,179,-139,2024-01-24 11:10:43,0.0
-13672,-644,3724,-445,194,-159,2024-01-24 11:10:43,0.0
-13796,-636,3700,-394,216,-183,2024-01-24 11:10:43,0.0
-13772,-712,3800,-386,236,-161,2024-01-24 11:10:44,0.0
-13820,-540,3752,-398,282,-160,2024-01-24 11:10:44,0.0
-13884,-620,3808,-375,250,-153,2024-01-24 11:10:44,0.0
-13696,-684,3756,-364,252,-146,2024-01-24 11:10:44,0.0
-13784,-652,3712,-345,285,-141,2024-01-24 11:10:44,0.0
-13800,-712,3732,-320,301,-151,2024-01-24 11:10:44,0.0
-13808,-600,3656,-329,298,-189,2024-01-24 11:10:44,0.0
-13764,-632,3764,-279,312,-206,2024-01-24 11:10:44,0.0
-13752,-588,3632,-215,307,-181,2024-01-24 11:10:44,0.0
-13732,-544,3640,-257,276,-210,2024-01-24 11:10:44,0.0
-13808,-668,3668,-218,290,-230,2024-01-24 11:10:44,0.0
-13740,-612,3540,-223,251,-206,2024-01-24 11:10:44,0.0
-13712,-656,3612,-222,261,-173,2024-01-24 11:10:44,0.0
-13700,-596,3548,-192,293,-204,2024-01-24 11:10:44,0.0
-13748,-692,3540,-208,295,-217,2024-01-24 11:10:44,
