acceleration_x,acceleration_y,acceleration_z,gyroscope_x,gyroscope_y,gyroscope_z,timestamp,label
-13988,-592,468,259,-1145,-543,2024-01-24 10:53:47,0.0
-13792,-500,324,382,-1640,-832,2024-01-24 10:53:47,0.0
-13764,-332,156,528,-1737,-1049,2024-01-24 10:53:47,0.0
-14032,-236,96,609,-1906,-1078,2024-01-24 10:53:47,0.0
-14172,-100,576,693,-2115,-1047,2024-01-24 10:53:47,0.0
-14236,56,804,773,-1906,-885,2024-01-24 10:53:47,0.0
-14116,40,640,800,-1475,-737,2024-01-24 10:53:47,0.0
-13964,44,532,774,-1009,-581,2024-01-24 10:53:47,0.0
-13948,-132,276,620,-701,-403,2024-01-24 10:53:47,0.0
-13940,-132,328,352,-709,-232,2024-01-24 10:53:47,0.0
-13668,-84,532,81,-705,-140,2024-01-24 10:53:47,0.0
-13504,24,752,-60,-571,-82,2024-01-24 10:53:47,0.0
-13432,212,748,-290,-285,-16,2024-01-24 10:53:47,0.0
-13408,108,744,-432,-4,-8,2024-01-24 10:53:47,0.0
-13352,-96,664,-579,52,-90,2024-01-24 10:53:47,0.0
-13464,-216,760,-678,55,-153,2024-01-24 10:53:47,0.0
-13576,-200,664,-772,133,-263,2024-01-24 10:53:47,0.0
-13788,-420,412,-855,172,-297,2024-01-24 10:53:47,0.0
-14060,-352,580,-945,178,-323,2024-01-24 10:53:47,0.0
-14040,-168,656,-957,83,-301,2024-01-24 10:53:47,0.0
-14156,-216,832,-991,49,-284,2024-01-24 10:53:47,0.0
-14108,-424,764,-980,-59,-242,2024-01-24 10:53:47,0.0
-14012,-512,836,-904,-134,-243,2024-01-24 10:53:47,0.0
-13980,-500,964,-807,-110,-247,2024-01-24 10:53:47,0.0
-13868,-584,1040,-700,-91,-218,2024-01-24 10:53:47,0.0
-13816,-720,944,-541,-116,-205,2024-01-24 10:53:47,0.0
-13660,-796,824,-397,-30,-200,2024-01-24 10:53:47,0.0
-13684,-640,984,-264,135,-167,2024-01-24 10:53:47,0.0
-13544,-616,780,-141,186,-186,2024-01-24 10:53:47,0.0
-13764,-560,820,-44,310,-136,2024-01-24 10:53:47,0.0
-13808,-624,588,-64,378,-99,2024-01-24 10:53:47,0.0
-13644,-796,428,-80,584,-44,2024-01-24 10:53:47,0.0
-13948,-612,672,-255,715,100,2024-01-24 10:53:47,0.0
-13900,-616,760,-325,641,74,2024-01-24 10:53:47,0.0
-14020,-488,916,-302,607,89,2024-01-24 10:53:47,0.0
-13804,-440,932,-292,517,97,2024-01-24 10:53:47,0.0
-13872,-372,684,-321,493,35,2024-01-24 10:53:47,0.0
-13720,-520,416,-295,467,-61,2024-01-24 10:53:47,0.0
-14164,-180,724,-281,558,-78,2024-01-24 10:53:47,0.0
-13744,-392,544,-158,424,-202,2024-01-24 10:53:47,0.0
-13928,-380,656,-31,338,-309,2024-01-24 10:53:47,0.0
-13872,-420,976,47,219,-430,2024-01-24 10:53:47,0.0
-13716,-356,812,191,240,-479,2024-01-24 10:53:48,0.0
-13772,-476,748,314,378,-489,2024-01-24 10:53:48,0.0
-13904,-392,696,430,471,-441,2024-01-24 10:53:48,0.0
-13896,-412,868,421,439,-331,2024-01-24 10:53:48,0.0
-13908,-232,664,447,418,-256,2024-01-24 10:53:48,0.0
-13876,-196,852,425,389,-169,2024-01-24 10:53:48,0.0
-13852,-168,688,362,391,-98,2024-01-24 10:53:48,0.0
-13716,-132,760,280,475,-54,2024-01-24 10:53:48,0.0
-13632,-164,588,197,570,-38,2024-01-24 10:53:48,0.0
-13696,-216,704,91,700,-57,2024-01-24 10:53:48,0.0
-13624,-192,440,-20,794,-73,2024-01-24 10:53:48,0.0
-13716,-144,244,-169,757,-117,2024-01-24 10:53:48,0.0
-13852,-212,376,-252,618,-114,2024-01-24 10:53:48,0.0
-13948,-208,208,-373,500,-94,2024-01-24 10:53:48,0.0
-14012,-244,424,-441,372,-127,2024-01-24 10:53:48,0.0
-13988,-284,232,-526,251,-146,2024-01-24 10:53:48,0.0
-13800,-176,388,-584,270,-171,2024-01-24 10:53:48,0.0
-13896,-400,536,-618,250,-221,2024-01-24 10:53:48,0.0
-13992,-436,568,-691,264,-265,2024-01-24 10:53:48,0.0
-13984,-616,664,-699,176,-271,2024-01-24 10:53:48,0.0
-13896,-628,728,-694,102,-267,2024-01-24 10:53:48,0.0
-13712,-476,668,-672,69,-242,2024-01-24 10:53:48,0.0
-13684,-472,700,-696,87,-214,2024-01-24 10:53:48,0.0
-13752,-452,712,-638,91,-170,2024-01-24 10:53:48,0.0
-13628,-452,692,-526,178,-139,2024-01-24 10:53:48,0.0
-13720,-488,732,-501,246,-140,2024-01-24 10:53:48,0.0
-13700,-444,504,-520,317,-110,2024-01-24 10:53:48,0.0
-13764,-372,380,-541,339,-113,2024-01-24 10:53:48,0.0
-13676,-348,472,-560,426,-140,2024-01-24 10:53:48,0.0
-13708,-340,556,-545,501,-157,2024-01-24 10:53:48,0.0
-13840,-280,472,-581,535,-124,2024-01-24 10:53:48,0.0
-13768,-244,492,-603,493,-117,2024-01-24 10:53:48,0.0
-13892,-224,508,-679,472,-143,2024-01-24 10:53:48,0.0
-13788,-204,448,-689,445,-123,2024-01-24 10:53:48,0.0
-13884,-304,416,-746,380,-124,2024-01-24 10:53:48,0.0
-13792,-340,552,-822,346,-153,2024-01-24 10:53:48,0.0
-13956,-376,436,-857,309,-115,2024-01-24 10:53:48,0.0
-13868,-304,428,-851,285,-111,2024-01-24 10:53:48,0.0
-13876,-252,548,-909,232,-102,2024-01-24 10:53:48,0.0
-13712,-200,416,-908,278,-92,2024-01-24 10:53:48,0.0
-13696,-356,596,-881,404,-116,2024-01-24 10:53:48,0.0
-13724,-368,464,-851,444,-127,2024-01-24 10:53:48,0.0
-13820,-392,596,-783,439,-118,2024-01-24 10:53:48,0.0
-13704,-424,532,-779,473,-137,2024-01-24 10:53:48,0.0
-13892,-364,592,-733,443,-125,2024-01-24 10:53:48,0.0
-13840,-408,524,-736,419,-165,2024-01-24 10:53:48,0.0
-13760,-288,564,-696,454,-145,2024-01-24 10:53:48,0.0
-13748,-332,476,-657,453,-158,2024-01-24 10:53:48,0.0
-13704,-308,508,-689,453,-128,2024-01-24 10:53:48,0.0
-13680,-288,356,-708,496,-125,2024-01-24 10:53:48,0.0
-13740,-236,216,-684,534,-110,2024-01-24 10:53:48,0.0
-13820,-352,272,-687,586,-155,2024-01-24 10:53:48,0.0
-13808,-200,368,-699,614,-160,2024-01-24 10:53:48,0.0
-13800,-332,448,-667,622,-200,2024-01-24 10:53:48,0.0
-13744,-372,304,-651,591,-200,2024-01-24 10:53:48,0.0
-13800,-280,352,-595,612,-246,2024-01-24 10:53:48,0.0
-13744,-360,392,-589,553,-257,2024-01-24 10:53:48,0.0
-13756,-456,504,-536,609,-275,2024-01-24 10:53:48,
-13736,-472,464,-491,612,-284,2024-01-24 10:53:48,0.0
-13688,-472,360,-476,665,-274,2024-01-24 10:53:49,0.0
-13804,-416,204,-467,660,-289,2024-01-24 10:53:49,0.0
-13852,-288,168,-447,649,-289,2024-01-24 10:53:49,0.0
-13872,-360,284,-444,654,-265,2024-01-24 10:53:49,0.0
-13896,-404,124,-437,539,-262,2024-01-24 10:53:49,0.0
-13864,-432,196,-320,446,-241,2024-01-24 10:53:49,0.0
-13808,-416,160,-345,373,-234,2024-01-24 10:53:49,0.0
-13940,-456,328,-268,411,-228,2024-01-24 10:53:49,0.0
-13844,-464,352,-230,453,-226,2024-01-24 10:53:49,0.0
-13784,-436,248,-192,454,-235,2024-01-24 10:53:49,0.0
-13816,-372,184,-180,443,-222,2024-01-24 10:53:49,0.0
-13688,-316,140,-100,527,-195,2024-01-24 10:53:49,0.0
-13704,-392,100,-103,562,-205,2024-01-24 10:53:49,0.0
-13728,-312,116,-125,584,-190,2024-01-24 10:53:49,0.0
-13716,-348,60,-140,565,-187,2024-01-24 10:53:49,0.0
-13740,-276,-12,-154,601,-188,2024-01-24 10:53:49,0.0
-13728,-288,84,-141,590,-173,2024-01-24 10:53:49,0.0
-13660,-388,32,-152,597,-183,2024-01-24 10:53:49,0.0
-13792,-304,84,-182,556,-182,2024-01-24 10:53:49,0.0
-13724,-316,-116,-165,589,-206,2024-01-24 10:53:49,0.0
-13784,-328,-48,-168,591,-188,2024-01-24 10:53:49,0.0
-13808,-428,0,-180,541,-195,2024-01-24 10:53:49,0.0
-13764,-328,-136,-161,506,-204,2024-01-24 10:53:49,0.0
-13880,-316,-96,-167,479,-215,2024-01-24 10:53:49,0.0
-13768,-288,-84,-177,494,-197,2024-01-24 10:53:49,0.0
-13816,-368,-20,-167,442,-200,2024-01-24 10:53:49,0.0
-13780,-288,-44,-149,434,-159,2024-01-24 10:53:49,0.0
-13728,-356,-60,-160,396,-171,2024-01-24 10:53:49,0.0
-13804,-424,-112,-143,359,-163,2024-01-24 10:53:49,0.0
-13796,-364,-68,-109,324,-168,2024-01-24 10:53:49,0.0
-13788,-348,-16,-116,347,-155,2024-01-24 10:53:49,0.0
-13804,-340,-24,-99,345,-155,2024-01-24 10:53:49,0.0
-13752,-332,-108,-140,379,-188,2024-01-24 10:53:49,0.0
-13636,-304,-112,-118,356,-137,2024-01-24 10:53:49,0.0
-13708,-404,-192,-97,422,-166,2024-01-24 10:53:49,0.0
-13724,-360,-264,-117,411,-174,2024-01-24 10:53:49,0.0
-13672,-400,-272,-92,468,-174,2024-01-24 10:53:49,0.0
-13764,-384,-136,-139,421,-148,2024-01-24 10:53:49,0.0
-13680,-328,-156,-165,483,-172,2024-01-24 10:53:49,0.0
-13628,-412,-292,-157,585,-160,2024-01-24 10:53:49,0.0
-13732,-376,-184,-157,626,-187,2024-01-24 10:53:49,0.0
-13676,-396,-136,-125,679,-165,2024-01-24 10:53:49,0.0
-13676,-368,-252,-169,674,-163,2024-01-24 10:53:49,0.0
-13720,-396,-220,-149,671,-169,2024-01-24 10:53:49,0.0
-13788,-416,-244,-125,653,-175,2024-01-24 10:53:49,0.0
-13664,-388,-296,-81,705,-163,2024-01-24 10:53:49,0.0
-13688,-540,-332,-110,748,-165,2024-01-24 10:53:49,0.0
-13804,-280,-392,-108,763,-180,2024-01-24 10:53:49,0.0
-13688,-388,-244,-71,795,-184,2024-01-24 10:53:49,0.0
-13708,-348,-452,-93,868,-155,2024-01-24 10:53:49,0.0
-13724,-308,-452,-106,851,-164,2024-01-24 10:53:49,0.0
-13660,-384,-448,-82,779,-183,2024-01-24 10:53:49,0.0
-13672,-344,-376,-35,770,-167,2024-01-24 10:53:49,0.0
-13680,-412,-584,-29,716,-160,2024-01-24 10:53:49,0.0
-13716,-392,-508,-36,664,-158,2024-01-24 10:53:49,0.0
-13776,-416,-500,7,540,-182,2024-01-24 10:53:49,0.0
-13680,-416,-584,-6,561,-163,2024-01-24 10:53:49,0.0
-13704,-324,-540,-1,536,-171,2024-01-24 10:53:49,0.0
-13748,-332,-576,9,532,-157,2024-01-24 10:53:50,0.0
-13748,-260,-772,-44,474,-140,2024-01-24 10:53:50,0.0
-13748,-352,-672,-29,408,-167,2024-01-24 10:53:50,0.0
-13756,-328,-572,-89,379,-157,2024-01-24 10:53:50,0.0
-13692,-384,-540,-84,316,-147,2024-01-24 10:53:50,0.0
-13616,-320,-552,-55,282,-151,2024-01-24 10:53:50,0.0
-13764,-344,-448,-119,330,-141,2024-01-24 10:53:50,0.0
-13552,-312,-588,-127,413,-179,2024-01-24 10:53:50,0.0
-13604,-352,-584,-132,520,-200,2024-01-24 10:53:50,0.0
-13616,-388,-516,-96,611,-242,2024-01-24 10:53:50,0.0
-13520,-436,-640,-80,596,-239,2024-01-24 10:53:50,0.0
-13768,-428,-552,-84,429,-285,2024-01-24 10:53:50,0.0
-13708,-376,-796,-46,355,-304,2024-01-24 10:53:50,0.0
-13684,-400,-836,-126,330,-336,2024-01-24 10:53:50,0.0
-13720,-420,-752,-197,317,-278,2024-01-24 10:53:50,0.0
-13644,-320,-740,-225,244,-284,2024-01-24 10:53:50,0.0
-13808,-432,-664,-277,159,-183,2024-01-24 10:53:50,0.0
-13804,-296,-732,-251,110,-150,2024-01-24 10:53:50,0.0
-13720,-396,-696,-237,55,-120,2024-01-24 10:53:50,0.0
-13792,-392,-768,-208,55,-119,2024-01-24 10:53:50,0.0
-13776,-356,-812,-234,34,-115,2024-01-24 10:53:50,0.0
-13672,-352,-820,-297,43,-111,2024-01-24 10:53:50,0.0
-13636,-280,-804,-368,50,-145,2024-01-24 10:53:50,0.0
-13540,-236,-936,-446,83,-157,2024-01-24 10:53:50,0.0
-13548,-192,-888,-570,198,-263,2024-01-24 10:53:50,0.0
-13512,-276,-932,-729,286,-334,2024-01-24 10:53:50,0.0
-13792,-452,-992,-932,453,-393,2024-01-24 10:53:50,0.0
-13976,-260,-1084,-1113,553,-414,2024-01-24 10:53:50,0.0
-14264,-396,-1100,-1323,806,-507,2024-01-24 10:53:50,0.0
-14604,-412,-992,-1421,934,-453,2024-01-24 10:53:50,0.0
-14580,-88,-1200,-1584,921,-332,2024-01-24 10:53:50,0.0
-13072,-616,-1408,-1824,729,-587,2024-01-24 10:53:50,0.0
-14644,-700,-736,-1595,1428,-618,2024-01-24 10:53:50,0.0
-14568,-408,-956,-1546,1052,-501,2024-01-24 10:53:50,0.0
-13308,-684,-1972,-1833,479,-142,2024-01-24 10:53:50,0.0
-12880,-4,-1096,-1782,-80,-201,2024-01-24 10:53:50,0.0
-15640,20,-1872,-1829,985,974,2024-01-24 10:53:50,0.0
-14932,496,-2276,-2384,566,2338,2024-01-24 10:53:50,0.0
-12420,-52,-1756,-2640,-1486,1933,2024-01-24 10:53:50,0.0
-12344,-376,-2464,-2807,-1392,1650,2024-01-24 10:53:50,0.0
-12560,-216,-1396,-2759,-849,1723,2024-01-24 10:53:50,
-12384,308,-1192,-2725,-529,1317,2024-01-24 10:53:50,0.0
-9764,-552,-688,-2512,-671,-409,2024-01-24 10:53:50,0.0
-12796,1524,-1764,-1675,-817,-294,2024-01-24 10:53:50,0.0
-13156,-144,-2340,-2999,803,1019,2024-01-24 10:53:50,0.0
-13068,-1048,-1492,-3314,100,2013,2024-01-24 10:53:50,0.0
-10684,608,-56,-2850,1553,670,2024-01-24 10:53:50,0.0
-15108,448,-896,-1944,1206,-1505,2024-01-24 10:53:50,0.0
-14688,-908,-2108,-1967,900,-1040,2024-01-24 10:53:50,0.0
-13636,352,-3836,-2348,1626,453,2024-01-24 10:53:50,0.0
-11136,-12,-3172,-2517,1640,878,2024-01-24 10:53:50,0.0
-12728,960,-1664,-1795,2360,122,2024-01-24 10:53:50,0.0
-11228,708,-2744,-1798,2715,-175,2024-01-24 10:53:50,0.0
-10028,1128,-3220,-1386,2538,-4586,2024-01-24 10:53:50,0.0
-17116,-1836,-3648,-1356,3329,-909,2024-01-24 10:53:50,0.0
-12740,-812,-1416,-964,3747,-347,2024-01-24 10:53:50,0.0
-12952,-1008,-2264,-346,3089,-981,2024-01-24 10:53:50,0.0
-13128,-168,-2852,-568,2463,-680,2024-01-24 10:53:50,0.0
-12624,100,-2660,-539,2621,-348,2024-01-24 10:53:50,0.0
-11800,676,-3344,-528,3512,-216,2024-01-24 10:53:51,0.0
-11432,1036,-3552,-662,4110,-92,2024-01-24 10:53:51,0.0
-10872,960,-3060,-764,4410,-7,2024-01-24 10:53:51,0.0
-10068,496,-3064,-979,5604,-347,2024-01-24 10:53:51,0.0
-10764,-208,-3004,-1178,6980,-666,2024-01-24 10:53:51,0.0
-12544,-788,-3000,-894,6859,-1080,2024-01-24 10:53:51,0.0
-13372,-1008,-2892,-587,4693,-1717,2024-01-24 10:53:51,0.0
-13356,-484,-1556,14,2607,-1909,2024-01-24 10:53:51,0.0
-13392,-372,-1012,873,1527,-1575,2024-01-24 10:53:51,0.0
-14340,-476,-716,1427,1941,-962,2024-01-24 10:53:51,0.0
-14480,-632,-1208,1534,2621,61,2024-01-24 10:53:51,0.0
-12956,4,-1516,1143,2901,661,2024-01-24 10:53:51,0.0
-11188,520,-964,712,3531,431,2024-01-24 10:53:51,0.0
-11056,1384,-872,891,4185,-263,2024-01-24 10:53:51,0.0
-12068,1960,-2028,1061,3884,-586,2024-01-24 10:53:51,0.0
-12688,2292,-2480,721,2717,-65,2024-01-24 10:53:51,0.0
-10080,836,-2644,-80,1975,492,2024-01-24 10:53:51,0.0
-7908,-280,-3208,-523,2872,397,2024-01-24 10:53:51,0.0
-7892,-516,-3928,-642,5552,-450,2024-01-24 10:53:51,0.0
-10504,136,-4300,-252,7173,-1399,2024-01-24 10:53:51,0.0
-14996,1496,-3860,-106,5363,-877,2024-01-24 10:53:51,0.0
-16456,1828,-2972,-195,3723,546,2024-01-24 10:53:51,0.0
-13976,8,-2520,-1041,4094,2375,2024-01-24 10:53:51,0.0
-12288,-1212,-3000,-1467,5324,2088,2024-01-24 10:53:51,0.0
-12632,-1448,-2924,-1161,5420,724,2024-01-24 10:53:51,0.0
-14168,-172,-3236,-308,3120,-315,2024-01-24 10:53:51,0.0
-14444,1356,-5208,-25,1648,724,2024-01-24 10:53:51,0.0
-12708,624,-6388,-483,2565,2201,2024-01-24 10:53:51,0.0
-12412,148,-6132,-1119,3705,2969,2024-01-24 10:53:51,0.0
-11752,-236,-6464,-1216,4072,2156,2024-01-24 10:53:51,0.0
-12788,1120,-7232,-1198,3762,1598,2024-01-24 10:53:51,0.0
-12352,1860,-6620,-1373,3970,2194,2024-01-24 10:53:51,0.0
-11060,468,-5948,-1647,4785,3298,2024-01-24 10:53:51,0.0
-10168,-1464,-5048,-1303,4784,2946,2024-01-24 10:53:51,0.0
-10268,-1100,-5736,-733,4834,1964,2024-01-24 10:53:51,0.0
-11396,1104,-6620,-673,4271,997,2024-01-24 10:53:51,0.0
-13204,3224,-7436,-1237,3058,1057,2024-01-24 10:53:51,0.0
-12716,3292,-7036,-2068,814,1778,2024-01-24 10:53:51,0.0
-12164,664,-5892,-1944,-783,1677,2024-01-24 10:53:51,0.0
-11336,-1304,-5364,-867,-1601,1143,2024-01-24 10:53:51,0.0
-10928,-608,-6372,-51,-2355,536,2024-01-24 10:53:51,0.0
-11180,1668,-7272,-231,-4240,283,2024-01-24 10:53:51,0.0
-11660,2508,-7872,-956,-5946,290,2024-01-24 10:53:51,0.0
-11960,1484,-7604,-1845,-7271,218,2024-01-24 10:53:51,0.0
-11716,280,-6392,-2378,-7814,-187,2024-01-24 10:53:51,0.0
-10180,-224,-5788,-1978,-7960,-1355,2024-01-24 10:53:51,0.0
-11320,1324,-5352,-1574,-8164,-2699,2024-01-24 10:53:51,0.0
-13196,2772,-4056,-1945,-8521,-2685,2024-01-24 10:53:51,0.0
-13196,1556,-4728,-2424,-8582,-2222,2024-01-24 10:53:51,0.0
-13344,620,-3844,-2727,-8456,-1853,2024-01-24 10:53:51,0.0
-12496,-92,-2888,-2369,-8051,-2349,2024-01-24 10:53:51,0.0
-13472,628,-2388,-1557,-7824,-2845,2024-01-24 10:53:51,0.0
-14180,1700,-2424,-904,-7693,-2642,2024-01-24 10:53:51,0.0
-14500,876,-3456,-968,-8290,-2115,2024-01-24 10:53:51,0.0
-14304,936,-3760,-1236,-9263,-2041,2024-01-24 10:53:51,0.0
-13528,1020,-3064,-1041,-9843,-2231,2024-01-24 10:53:51,0.0
-13312,480,-2308,-358,-9671,-2710,2024-01-24 10:53:51,0.0
-14760,1244,-1844,153,-9324,-2682,2024-01-24 10:53:51,0.0
-15724,1024,-1608,236,-8697,-2253,2024-01-24 10:53:52,0.0
-16516,44,-160,342,-7340,-1980,2024-01-24 10:53:52,0.0
-19820,836,436,889,-4796,-1691,2024-01-24 10:53:52,0.0
-22480,3576,-372,1155,-3015,-571,2024-01-24 10:53:52,0.0
-23172,-324,-1468,2507,-1001,654,2024-01-24 10:53:52,0.0
-18584,-388,-1916,2162,-1732,359,2024-01-24 10:53:52,0.0
-16520,148,-388,2285,-2762,-200,2024-01-24 10:53:52,0.0
-14744,592,652,2009,-4275,-296,2024-01-24 10:53:52,0.0
-13312,1196,1352,1351,-6312,-580,2024-01-24 10:53:52,0.0
-12592,760,2680,372,-8182,-624,2024-01-24 10:53:52,0.0
-12252,432,3136,-314,-8502,-423,2024-01-24 10:53:52,0.0
-12008,164,4052,-715,-7826,-433,2024-01-24 10:53:52,0.0
-12416,-60,4484,-878,-6784,-365,2024-01-24 10:53:52,0.0
-12676,-388,4320,-842,-5907,-650,2024-01-24 10:53:52,0.0
-13504,-316,3900,-614,-5722,-1039,2024-01-24 10:53:52,0.0
-14200,148,3392,-195,-6044,-1246,2024-01-24 10:53:52,0.0
-14376,484,3020,219,-6053,-1011,2024-01-24 10:53:52,0.0
-14080,640,1896,237,-5953,-812,2024-01-24 10:53:52,0.0
-14304,548,1956,132,-5446,-544,2024-01-24 10:53:52,0.0
-14300,412,2040,35,-4570,-200,2024-01-24 10:53:52,0.0
-14676,736,2148,-116,-3625,151,2024-01-24 10:53:52,0.0
-14492,620,2400,-120,-3509,379,2024-01-24 10:53:52,0.0
-14392,800,2288,-9,-3830,428,2024-01-24 10:53:52,0.0
-14060,596,2564,148,-4055,378,2024-01-24 10:53:52,
-13852,464,2816,265,-4123,370,2024-01-24 10:53:52,0.0
-13228,236,3416,331,-3800,140,2024-01-24 10:53:52,0.0
-13000,-4,4100,444,-3247,-173,2024-01-24 10:53:52,0.0
-12984,8,4460,598,-2955,-437,2024-01-24 10:53:52,0.0
-13220,136,4856,722,-2788,-628,2024-01-24 10:53:52,0.0
-13220,228,4728,745,-2648,-747,2024-01-24 10:53:52,0.0
-13208,396,4744,666,-2178,-790,2024-01-24 10:53:52,0.0
-12992,532,4664,530,-1541,-820,2024-01-24 10:53:52,0.0
-13376,528,5032,582,-1139,-875,2024-01-24 10:53:52,0.0
-13632,200,5124,909,-1250,-821,2024-01-24 10:53:52,0.0
-13872,-76,4988,1257,-1718,-561,2024-01-24 10:53:52,0.0
-13532,8,5068,1420,-2303,-424,2024-01-24 10:53:52,0.0
-13176,196,5208,1410,-2504,-459,2024-01-24 10:53:52,0.0
-13308,456,5484,1354,-2521,-546,2024-01-24 10:53:52,0.0
-13180,300,5648,1230,-2337,-595,2024-01-24 10:53:52,0.0
-13316,380,5968,1048,-2015,-525,2024-01-24 10:53:52,0.0
-13132,220,5848,758,-1401,-450,2024-01-24 10:53:52,0.0
-13164,484,5728,433,-853,-511,2024-01-24 10:53:52,0.0
-13428,568,5628,118,-440,-515,2024-01-24 10:53:52,0.0
-13372,460,5428,-29,-278,-523,2024-01-24 10:53:52,0.0
-13452,296,5348,-179,-259,-381,2024-01-24 10:53:52,0.0
-13436,128,5384,-313,-169,-203,2024-01-24 10:53:52,0.0
-13320,124,5440,-370,15,-124,2024-01-24 10:53:52,0.0
-13388,184,5372,-326,92,-150,2024-01-24 10:53:52,0.0
-13404,240,5352,-288,82,-231,2024-01-24 10:53:52,0.0
-13508,244,5268,-248,6,-288,2024-01-24 10:53:52,0.0
-13448,200,5076,-253,-11,-337,2024-01-24 10:53:52,0.0
-13440,404,4988,-396,146,-281,2024-01-24 10:53:52,0.0
-13540,624,4884,-448,328,-199,2024-01-24 10:53:52,0.0
-13580,628,4676,-603,387,-181,2024-01-24 10:53:52,0.0
-13660,344,4704,-668,286,-158,2024-01-24 10:53:52,0.0
-13676,312,4916,-664,228,-152,2024-01-24 10:53:52,0.0
-13584,160,5040,-607,202,-163,2024-01-24 10:53:52,0.0
-13568,148,5132,-619,297,-194,2024-01-24 10:53:52,0.0
-13656,-12,5116,-657,177,-255,2024-01-24 10:53:52,0.0
-13980,72,5016,-782,-486,-318,2024-01-24 10:53:53,0.0
-13968,232,5084,-845,-1521,-362,2024-01-24 10:53:53,0.0
-13904,144,5044,-788,-2291,-273,2024-01-24 10:53:53,0.0
-13492,204,5396,-683,-2667,-81,2024-01-24 10:53:53,0.0
-13356,144,6000,-566,-2593,116,2024-01-24 10:53:53,0.0
-13248,200,6380,-459,-2204,251,2024-01-24 10:53:53,0.0
-12724,144,6244,-521,-1376,111,2024-01-24 10:53:53,0.0
-12972,-84,6452,-521,-543,-20,2024-01-24 10:53:53,0.0
-13076,-144,6188,-388,45,-104,2024-01-24 10:53:53,0.0
-13084,-260,6052,-261,260,-259,2024-01-24 10:53:53,0.0
-13032,-148,6040,-222,395,-404,2024-01-24 10:53:53,0.0
-13320,72,5804,-169,378,-525,2024-01-24 10:53:53,0.0
-13348,224,5816,-154,278,-551,2024-01-24 10:53:53,0.0
-13288,320,5664,-158,49,-529,2024-01-24 10:53:53,0.0
-13332,320,5616,-188,-78,-513,2024-01-24 10:53:53,0.0
-13260,304,5644,-231,-90,-539,2024-01-24 10:53:53,0.0
-13352,228,5728,-292,-20,-545,2024-01-24 10:53:53,0.0
-13348,304,5884,-294,119,-519,2024-01-24 10:53:53,0.0
-13376,72,5936,-291,235,-468,2024-01-24 10:53:53,0.0
-13436,36,5716,-351,277,-409,2024-01-24 10:53:53,0.0
-13564,32,5732,-435,288,-391,2024-01-24 10:53:53,0.0
-13432,184,5840,-447,237,-372,2024-01-24 10:53:53,0.0
-13480,8,5988,-419,167,-363,2024-01-24 10:53:53,0.0
-13420,72,6044,-362,82,-359,2024-01-24 10:53:53,0.0
-13424,64,6072,-324,-37,-335,2024-01-24 10:53:53,0.0
-13492,104,5964,-303,-204,-346,2024-01-24 10:53:53,0.0
-13388,20,5944,-307,-202,-355,2024-01-24 10:53:53,0.0
-13336,12,5920,-306,-110,-342,2024-01-24 10:53:53,0.0
-13456,56,6112,-257,-114,-317,2024-01-24 10:53:53,0.0
-13416,-96,6092,-289,-93,-223,2024-01-24 10:53:53,0.0
-13284,-60,6048,-240,-109,-184,2024-01-24 10:53:53,0.0
-13256,-216,6120,-285,-41,-195,2024-01-24 10:53:53,0.0
-13380,-264,6024,-253,-31,-214,2024-01-24 10:53:53,0.0
-13328,-248,6084,-212,-27,-227,2024-01-24 10:53:53,0.0
-13332,-184,5752,-195,-20,-269,2024-01-24 10:53:53,0.0
-13284,-168,5960,-180,91,-274,2024-01-24 10:53:53,0.0
-13040,-188,6108,-240,251,-273,2024-01-24 10:53:53,0.0
-12916,-140,6296,-302,525,-369,2024-01-24 10:53:53,0.0
-12976,-92,6416,-284,944,-500,2024-01-24 10:53:53,0.0
-13280,-28,6248,-221,1168,-568,2024-01-24 10:53:53,0.0
-13380,-112,6064,-236,1218,-589,2024-01-24 10:53:53,0.0
-13492,-56,6256,-213,1049,-594,2024-01-24 10:53:53,0.0
-13500,84,6284,-121,870,-584,2024-01-24 10:53:53,0.0
-13464,304,6148,1,621,-455,2024-01-24 10:53:53,0.0
-13392,108,5976,100,487,-392,2024-01-24 10:53:53,0.0
-13556,84,6044,223,305,-304,2024-01-24 10:53:53,0.0
-13576,144,5820,324,91,-199,2024-01-24 10:53:53,0.0
-13488,-4,5596,321,-113,-90,2024-01-24 10:53:53,0.0
-13444,-256,5384,231,-156,-22,2024-01-24 10:53:53,0.0
-13436,-316,5372,148,-226,-79,2024-01-24 10:53:53,0.0
-13308,-328,5440,-37,-133,-120,2024-01-24 10:53:53,0.0
-13260,-496,5336,-208,145,-190,2024-01-24 10:53:53,0.0
-13132,-712,5688,-486,642,-340,2024-01-24 10:53:53,0.0
-13288,-516,5944,-675,1109,-550,2024-01-24 10:53:53,0.0
-13388,-188,6072,-642,1310,-712,2024-01-24 10:53:53,0.0
-13268,-8,6028,-466,1253,-621,2024-01-24 10:53:53,0.0
-13240,156,6212,-370,1156,-455,2024-01-24 10:53:53,0.0
-13132,156,6184,-294,1198,-389,2024-01-24 10:53:53,0.0
-13292,272,6132,-268,1180,-340,2024-01-24 10:53:53,0.0
-13480,320,6188,-176,842,-156,2024-01-24 10:53:54,0.0
-13592,256,6024,-67,579,18,2024-01-24 10:53:54,0.0
-13580,-80,6068,36,418,128,2024-01-24 10:53:54,0.0
-13604,-128,5752,74,244,235,2024-01-24 10:53:54,0.0
-13644,-120,5544,105,-17,257,2024-01-24 10:53:54,0.0
-13576,-376,5320,59,-212,235,2024-01-24 10:53:54,
-13416,-456,4904,-32,-137,222,2024-01-24 10:53:54,0.0
-13620,-484,4956,-54,29,189,2024-01-24 10:53:54,0.0
-13600,-404,4812,-67,-9,205,2024-01-24 10:53:54,0.0
-13488,-408,5080,-4,-134,218,2024-01-24 10:53:54,0.0
-13488,-316,5068,1,-296,190,2024-01-24 10:53:54,0.0
-13432,-220,5264,36,-468,129,2024-01-24 10:53:54,0.0
-13424,-172,5532,-10,-463,149,2024-01-24 10:53:54,0.0
-13556,104,5572,-58,-518,152,2024-01-24 10:53:54,0.0
-13428,64,5780,-110,-558,151,2024-01-24 10:53:54,0.0
-13340,192,6148,-143,-570,125,2024-01-24 10:53:54,0.0
-13300,192,6172,-151,-624,196,2024-01-24 10:53:54,0.0
-13212,204,6340,-157,-643,240,2024-01-24 10:53:54,0.0
-13216,192,6168,-173,-467,292,2024-01-24 10:53:54,0.0
-13172,208,6196,-157,-213,299,2024-01-24 10:53:54,0.0
-13080,180,6296,-237,-120,294,2024-01-24 10:53:54,0.0
-13236,212,6240,-247,-51,269,2024-01-24 10:53:54,0.0
-13260,128,6148,-210,28,192,2024-01-24 10:53:54,0.0
-13184,116,6172,-234,85,139,2024-01-24 10:53:54,0.0
-13276,188,6104,-238,115,89,2024-01-24 10:53:54,0.0
-13180,160,6144,-250,200,25,2024-01-24 10:53:54,0.0
-13160,236,6040,-251,239,-31,2024-01-24 10:53:54,0.0
-13188,252,6036,-229,373,-89,2024-01-24 10:53:54,0.0
-13248,328,6072,-275,328,-128,2024-01-24 10:53:54,0.0
-13200,200,5940,-244,374,-171,2024-01-24 10:53:54,0.0
-13216,256,5960,-285,386,-241,2024-01-24 10:53:54,0.0
-13248,232,5992,-235,474,-240,2024-01-24 10:53:54,0.0
-13320,140,5928,-251,572,-233,2024-01-24 10:53:54,0.0
-13284,64,6000,-198,583,-207,2024-01-24 10:53:54,0.0
-13220,48,5976,-195,650,-203,2024-01-24 10:53:54,0.0
-13256,48,5888,-155,658,-210,2024-01-24 10:53:54,0.0
-13280,92,5716,-149,639,-227,2024-01-24 10:53:54,0.0
-13512,8,5932,-168,668,-243,2024-01-24 10:53:54,0.0
-13412,-36,5816,-162,661,-236,2024-01-24 10:53:54,0.0
-13364,72,5800,-199,695,-254,2024-01-24 10:53:54,0.0
-13436,68,5880,-179,665,-237,2024-01-24 10:53:54,0.0
-13320,176,5840,-172,646,-261,2024-01-24 10:53:54,0.0
-13276,112,5920,-197,677,-258,2024-01-24 10:53:54,0.0
-13288,108,5652,-182,711,-261,2024-01-24 10:53:54,0.0
-13344,120,5768,-230,688,-289,2024-01-24 10:53:54,0.0
-13460,216,5812,-217,640,-308,2024-01-24 10:53:54,0.0
-13252,188,5636,-212,625,-325,2024-01-24 10:53:54,0.0
-13484,176,5764,-239,641,-363,2024-01-24 10:53:54,0.0
-13408,144,5692,-239,582,-338,2024-01-24 10:53:54,0.0
-13492,204,5480,-250,563,-331,2024-01-24 10:53:54,0.0
-13440,160,5620,-273,570,-329,2024-01-24 10:53:54,0.0
-13348,184,5524,-271,581,-334,2024-01-24 10:53:54,0.0
-13544,104,5620,-301,612,-330,2024-01-24 10:53:54,0.0
-13564,148,5684,-269,639,-329,2024-01-24 10:53:54,0.0
-13548,44,5464,-305,682,-351,2024-01-24 10:53:54,0.0
-13448,116,5440,-282,737,-341,2024-01-24 10:53:54,0.0
-13480,172,5288,-274,658,-281,2024-01-24 10:53:54,0.0
-13492,84,5516,-242,589,-238,2024-01-24 10:53:54,0.0
-13492,84,5472,-242,530,-254,2024-01-24 10:53:55,0.0
-13424,-100,5668,-268,513,-264,2024-01-24 10:53:55,0.0
-13444,-88,5572,-249,493,-262,2024-01-24 10:53:55,0.0
-13364,-100,5568,-228,591,-252,2024-01-24 10:53:55,0.0
-13316,-84,5540,-176,662,-243,2024-01-24 10:53:55,0.0
-13492,-8,5556,-185,654,-274,2024-01-24 10:53:55,0.0
-13556,4,5524,-204,641,-255,2024-01-24 10:53:55,0.0
-13504,-12,5388,-207,674,-232,2024-01-24 10:53:55,0.0
-13436,40,5496,-231,662,-216,2024-01-24 10:53:55,0.0
-13432,72,5240,-235,654,-220,2024-01-24 10:53:55,0.0
-13308,0,5532,-225,648,-209,2024-01-24 10:53:55,0.0
-13400,52,5336,-238,646,-249,2024-01-24 10:53:55,0.0
-13500,52,5296,-187,617,-233,2024-01-24 10:53:55,0.0
-13536,16,5216,-195,569,-271,2024-01-24 10:53:55,0.0
-13524,36,5308,-162,621,-236,2024-01-24 10:53:55,0.0
-13568,4,5364,-162,665,-232,2024-01-24 10:53:55,0.0
-13584,-72,5388,-139,570,-154,2024-01-24 10:53:55,0.0
-13564,-20,5208,-135,491,-180,2024-01-24 10:53:55,0.0
-13472,-8,5228,-103,443,-191,2024-01-24 10:53:55,0.0
-13608,-76,5424,-126,413,-184,2024-01-24 10:53:55,0.0
-13532,16,5240,-170,417,-165,2024-01-24 10:53:55,0.0
-13460,56,5144,-141,370,-193,2024-01-24 10:53:55,0.0
-13436,16,5144,-109,314,-168,2024-01-24 10:53:55,0.0
-13400,-52,5168,-155,347,-177,2024-01-24 10:53:55,0.0
-13496,-80,5184,-179,480,-308,2024-01-24 10:53:55,0.0
-13580,-112,5016,-232,805,-474,2024-01-24 10:53:55,0.0
-13868,-212,5108,-333,1417,-629,2024-01-24 10:53:55,0.0
-13944,-124,5248,-241,1355,-452,2024-01-24 10:53:55,0.0
-13764,-48,5132,-209,1035,-273,2024-01-24 10:53:55,0.0
-13276,144,5272,-193,540,-86,2024-01-24 10:53:55,0.0
-13312,172,5176,-209,298,19,2024-01-24 10:53:55,0.0
-13356,100,4872,-234,339,-21,2024-01-24 10:53:55,0.0
-13360,88,5032,-300,452,-109,2024-01-24 10:53:55,0.0
-13472,160,5048,-419,366,-141,2024-01-24 10:53:55,0.0
-13512,128,5024,-415,250,-197,2024-01-24 10:53:55,0.0
-13452,80,5008,-446,164,-191,2024-01-24 10:53:55,0.0
-13416,60,4896,-422,101,-200,2024-01-24 10:53:55,0.0
-13456,-16,4780,-360,79,-131,2024-01-24 10:53:55,0.0
-13500,-116,5024,-357,146,-77,2024-01-24 10:53:55,0.0
-13492,-136,5000,-342,168,-124,2024-01-24 10:53:55,0.0
-13616,-200,5128,-300,169,-146,2024-01-24 10:53:55,0.0
-13664,-264,5280,-242,194,-185,2024-01-24 10:53:55,0.0
-13652,-256,5180,-185,150,-196,2024-01-24 10:53:55,0.0
-13532,-224,5220,-158,98,-174,2024-01-24 10:53:55,0.0
-13580,-232,5156,-92,86,-195,2024-01-24 10:53:55,0.0
-13500,-212,5096,-83,55,-217,2024-01-24 10:53:55,0.0
-13536,-108,5076,-25,50,-200,2024-01-24 10:53:55,0.0
-13576,52,5252,-6,46,-207,2024-01-24 10:53:55,
