acceleration_x,acceleration_y,acceleration_z,gyroscope_x,gyroscope_y,gyroscope_z,timestamp,label
-3449,-26,184,-346,138,-174,2024-02-05 15:50:42.304,0.0
-3478,0,234,-370,270,-153,2024-02-05 15:50:42.361,0.0
-3444,-46,180,-333,221,-225,2024-02-05 15:50:42.412,0.0
-3459,-7,201,-326,247,-187,2024-02-05 15:50:42.472,0.0
-3441,-5,157,-294,213,-216,2024-02-05 15:50:42.529,0.0
-3456,-37,189,-329,303,-213,2024-02-05 15:50:42.586,0.0
-3471,-30,229,-283,247,-214,2024-02-05 15:50:42.643,0.0
-3435,-11,160,-315,267,-203,2024-02-05 15:50:42.716,0.0
-3474,-5,165,-362,168,-153,2024-02-05 15:50:42.761,0.0
-3425,-20,178,-324,210,-159,2024-02-05 15:50:42.810,0.0
-3448,-40,163,-291,268,-176,2024-02-05 15:50:42.867,0.0
-3448,-26,207,-209,222,-166,2024-02-05 15:50:42.924,0.0
-3456,6,147,-194,205,-170,2024-02-05 15:50:42.981,0.0
-3442,-21,162,-175,271,-173,2024-02-05 15:50:43.041,0.0
-3433,-20,172,-222,207,-137,2024-02-05 15:50:43.098,0.0
-3431,-15,196,-227,293,-184,2024-02-05 15:50:43.156,0.0
-3436,13,172,-258,324,-175,2024-02-05 15:50:43.212,0.0
-3455,-11,170,-281,319,-165,2024-02-05 15:50:43.268,0.0
-3466,-19,187,-313,382,-190,2024-02-05 15:50:43.324,0.0
-3463,-40,160,-365,283,-171,2024-02-05 15:50:43.382,
-3446,-20,140,-369,305,-131,2024-02-05 15:50:43.439,0.0
-3441,-23,156,-350,298,-183,2024-02-05 15:50:43.498,0.0
-3458,-24,134,-390,321,-145,2024-02-05 15:50:43.570,0.0
-3440,-52,135,-339,289,-136,2024-02-05 15:50:43.602,0.0
-3455,-39,81,-277,345,-201,2024-02-05 15:50:43.662,0.0
-3409,-8,199,-269,562,-249,2024-02-05 15:50:43.728,0.0
-3483,24,221,-213,325,-209,2024-02-05 15:50:43.777,0.0
-3478,23,184,-235,81,-121,2024-02-05 15:50:43.842,0.0
-3527,-1,82,-289,-208,-39,2024-02-05 15:50:43.898,0.0
-3424,12,25,-367,-55,-155,2024-02-05 15:50:43.947,0.0
-3384,-28,137,-350,333,-271,2024-02-05 15:50:44.004,0.0
-3442,-14,252,-381,495,-223,2024-02-05 15:50:44.061,0.0
-3448,27,234,-346,227,-105,2024-02-05 15:50:44.118,0.0
-3483,4,176,-351,34,-57,2024-02-05 15:50:44.182,0.0
-3476,-42,104,-233,-89,-122,2024-02-05 15:50:44.231,0.0
-3429,11,115,-271,4,-217,2024-02-05 15:50:44.291,0.0
-3446,43,149,-352,-24,-204,2024-02-05 15:50:44.348,0.0
-3469,20,193,-471,100,-167,2024-02-05 15:50:44.405,0.0
-3450,-31,167,-447,-4,-131,2024-02-05 15:50:44.462,0.0
-3456,-13,181,-260,32,-197,2024-02-05 15:50:44.516,
-3439,1,153,-146,21,-215,2024-02-05 15:50:44.572,0.0
-3441,25,159,-109,171,-175,2024-02-05 15:50:44.629,0.0
-3460,9,152,-197,78,-150,2024-02-05 15:50:44.685,0.0
-3465,-9,166,-141,182,-222,2024-02-05 15:50:44.743,0.0
-3432,-7,167,-145,138,-291,2024-02-05 15:50:44.801,0.0
-3451,-39,219,-121,286,-275,2024-02-05 15:50:44.857,0.0
-3426,1,186,-96,321,-250,2024-02-05 15:50:44.914,0.0
-3471,-7,178,-81,406,-189,2024-02-05 15:50:44.971,0.0
-3433,10,139,-39,299,-174,2024-02-05 15:50:45.023,0.0
-3482,-31,186,-15,351,-174,2024-02-05 15:50:45.079,0.0
-3441,-14,146,-69,280,-239,2024-02-05 15:50:45.140,0.0
-3433,-21,171,-62,285,-255,2024-02-05 15:50:45.198,0.0
-3451,-15,154,-44,351,-252,2024-02-05 15:50:45.251,0.0
-3424,-31,159,-20,403,-225,2024-02-05 15:50:45.305,0.0
-3465,-15,151,-73,320,-210,2024-02-05 15:50:45.362,0.0
-3451,4,133,-101,391,-224,2024-02-05 15:50:45.419,0.0
-3424,-19,153,-160,196,-211,2024-02-05 15:50:45.477,0.0
-3471,-37,127,-210,176,-181,2024-02-05 15:50:45.536,0.0
-3463,-17,111,-197,130,-162,2024-02-05 15:50:45.598,0.0
-3441,-35,179,-172,184,-182,2024-02-05 15:50:45.644,
-3450,-11,139,-162,265,-162,2024-02-05 15:50:45.709,0.0
-3477,-14,118,-228,201,-151,2024-02-05 15:50:45.757,0.0
-3398,-24,116,-264,233,-154,2024-02-05 15:50:45.815,0.0
-3459,-53,129,-257,269,-171,2024-02-05 15:50:45.877,0.0
-3497,-27,128,-249,244,-157,2024-02-05 15:50:45.934,0.0
-3446,-27,138,-217,175,-137,2024-02-05 15:50:45.992,0.0
-3418,-7,136,-220,199,-214,2024-02-05 15:50:46.042,0.0
-3446,-20,91,-288,223,-161,2024-02-05 15:50:46.098,0.0
-3426,-44,142,-235,271,-130,2024-02-05 15:50:46.156,0.0
-3443,-28,106,-145,295,-106,2024-02-05 15:50:46.212,0.0
-3476,28,82,-117,205,-67,2024-02-05 15:50:46.271,0.0
-3480,8,143,-147,229,-89,2024-02-05 15:50:46.329,0.0
-3435,-4,103,-159,212,-151,2024-02-05 15:50:46.387,0.0
-3472,-4,131,-184,213,-256,2024-02-05 15:50:46.446,0.0
-3445,11,95,-165,196,-279,2024-02-05 15:50:46.501,0.0
-3416,-8,135,-190,182,-264,2024-02-05 15:50:46.559,0.0
-3402,-18,116,-105,216,-238,2024-02-05 15:50:46.616,0.0
-3423,26,114,-146,462,-251,2024-02-05 15:50:46.666,0.0
-3469,4,44,-148,496,-196,2024-02-05 15:50:46.752,0.0
-3475,-8,67,-138,286,-222,2024-02-05 15:50:46.785,
-3455,-28,47,-158,209,-268,2024-02-05 15:50:46.842,0.0
-3444,-27,72,-178,232,-241,2024-02-05 15:50:46.899,0.0
-3438,-7,56,-178,241,-241,2024-02-05 15:50:46.963,0.0
-3458,-30,55,-195,272,-198,2024-02-05 15:50:47.012,0.0
-3435,-14,82,-120,325,-198,2024-02-05 15:50:47.061,0.0
-3446,-33,13,-188,398,-247,2024-02-05 15:50:47.125,0.0
-3460,-33,39,-246,382,-261,2024-02-05 15:50:47.174,0.0
-3449,-51,118,-338,244,-344,2024-02-05 15:50:47.240,0.0
-3431,-25,102,-347,307,-298,2024-02-05 15:50:47.290,0.0
-3428,-50,59,-376,357,-232,2024-02-05 15:50:47.348,0.0
-3437,-12,48,-372,345,-207,2024-02-05 15:50:47.407,0.0
-3445,-46,47,-373,398,-240,2024-02-05 15:50:47.464,0.0
-3466,-57,18,-416,461,-230,2024-02-05 15:50:47.522,0.0
-3466,-61,38,-413,354,-199,2024-02-05 15:50:47.573,0.0
-3474,-76,0,-361,331,-195,2024-02-05 15:50:47.638,0.0
-3465,-52,13,-225,350,-198,2024-02-05 15:50:47.689,0.0
-3443,-47,10,-209,325,-193,2024-02-05 15:50:47.746,0.0
-3443,-41,9,-207,396,-154,2024-02-05 15:50:47.819,0.0
-3471,-51,-14,-203,364,-185,2024-02-05 15:50:47.863,0.0
-3437,-38,-25,-188,352,-179,2024-02-05 15:50:47.920,
-3458,-28,-13,-140,368,-171,2024-02-05 15:50:47.976,0.0
-3445,-31,-19,-96,285,-173,2024-02-05 15:50:48.028,0.0
-3436,-30,-3,-133,340,-223,2024-02-05 15:50:48.084,0.0
-3427,-31,-18,-107,359,-194,2024-02-05 15:50:48.149,0.0
-3445,-24,-28,-91,347,-182,2024-02-05 15:50:48.200,0.0
-3464,-10,-36,-101,280,-161,2024-02-05 15:50:48.256,0.0
-3424,-14,-38,-101,252,-138,2024-02-05 15:50:48.308,0.0
-3434,-51,-24,-99,198,-189,2024-02-05 15:50:48.373,0.0
-3457,-30,-62,-145,262,-181,2024-02-05 15:50:48.430,0.0
-3414,-39,-25,-152,248,-160,2024-02-05 15:50:48.479,0.0
-3424,-60,-34,-175,217,-182,2024-02-05 15:50:48.536,0.0
-3430,-32,-42,-164,186,-172,2024-02-05 15:50:48.592,0.0
-3421,-23,-46,-208,182,-159,2024-02-05 15:50:48.656,0.0
-3443,-21,-39,-219,119,-183,2024-02-05 15:50:48.709,0.0
-3461,-48,-28,-272,232,-194,2024-02-05 15:50:48.797,0.0
-3435,-56,-52,-282,155,-173,2024-02-05 15:50:48.821,0.0
-3434,-44,-64,-268,234,-171,2024-02-05 15:50:48.879,0.0
-3463,-39,-27,-186,156,-203,2024-02-05 15:50:48.938,0.0
-3450,-59,1,-135,154,-168,2024-02-05 15:50:49.003,0.0
-3436,-24,-42,-104,185,-145,2024-02-05 15:50:49.052,
-3397,-51,-70,-97,116,-202,2024-02-05 15:50:49.109,0.0
-3461,-46,-66,-25,173,-174,2024-02-05 15:50:49.165,0.0
-3411,-28,-29,37,169,-166,2024-02-05 15:50:49.214,0.0
-3415,-29,-46,-10,184,-177,2024-02-05 15:50:49.278,0.0
-3441,-37,-70,42,283,-212,2024-02-05 15:50:49.330,0.0
-3440,-47,-57,52,299,-175,2024-02-05 15:50:49.387,0.0
-3455,-43,-52,20,257,-174,2024-02-05 15:50:49.446,0.0
-3422,-16,-69,-60,259,-172,2024-02-05 15:50:49.503,0.0
-3433,-54,-74,-120,195,-197,2024-02-05 15:50:49.568,0.0
-3457,-38,-38,-190,226,-209,2024-02-05 15:50:49.624,0.0
-3439,-50,-44,-221,197,-168,2024-02-05 15:50:49.665,0.0
-3427,-29,-24,-260,145,-162,2024-02-05 15:50:49.737,0.0
-3405,-39,-57,-272,195,-186,2024-02-05 15:50:49.786,0.0
-3457,-43,-118,-298,206,-191,2024-02-05 15:50:49.845,0.0
-3425,-39,-40,-273,164,-180,2024-02-05 15:50:49.901,0.0
-3425,-39,-83,-282,193,-151,2024-02-05 15:50:49.969,0.0
-3442,-37,-45,-266,225,-183,2024-02-05 15:50:50.018,0.0
-3426,-53,-83,-242,243,-177,2024-02-05 15:50:50.077,0.0
-3437,-71,-62,-181,187,-150,2024-02-05 15:50:50.126,0.0
-3448,-47,-48,-155,193,-161,2024-02-05 15:50:50.182,
-3438,-19,-47,-145,180,-167,2024-02-05 15:50:50.239,0.0
-3437,-39,-57,-123,233,-148,2024-02-05 15:50:50.296,0.0
-3438,-28,-51,-122,206,-138,2024-02-05 15:50:50.353,0.0
-3455,-44,-35,-94,234,-165,2024-02-05 15:50:50.417,0.0
-3443,-32,-68,-140,196,-199,2024-02-05 15:50:50.469,0.0
-3454,-7,-64,-185,224,-148,2024-02-05 15:50:50.526,0.0
-3441,-32,-71,-223,186,-173,2024-02-05 15:50:50.582,0.0
-3441,-36,-52,-242,196,-171,2024-02-05 15:50:50.639,0.0
-3459,-45,-47,-182,185,-165,2024-02-05 15:50:50.694,0.0
-3447,-48,-49,-188,180,-142,2024-02-05 15:50:50.748,0.0
-3408,-18,-61,-177,170,-153,2024-02-05 15:50:50.805,0.0
-3438,-33,-31,-187,206,-163,2024-02-05 15:50:50.861,0.0
-3419,-32,-80,-150,198,-143,2024-02-05 15:50:50.926,0.0
-3451,-25,-61,-151,277,-150,2024-02-05 15:50:50.982,0.0
-3443,-19,-48,-147,210,-205,2024-02-05 15:50:51.071,0.0
-3433,-15,-69,-190,185,-184,2024-02-05 15:50:51.095,0.0
-3417,-21,-84,-166,218,-176,2024-02-05 15:50:51.157,0.0
-3458,-43,-77,-178,265,-171,2024-02-05 15:50:51.205,0.0
-3408,-27,-52,-161,297,-184,2024-02-05 15:50:51.270,0.0
-3437,-21,-75,-123,341,-172,2024-02-05 15:50:51.327,
-3445,-28,-96,-178,229,-175,2024-02-05 15:50:51.383,0.0
-3426,-16,-75,-165,344,-199,2024-02-05 15:50:51.440,0.0
-3433,-30,-110,-163,301,-195,2024-02-05 15:50:51.488,0.0
-3450,-35,-99,-166,230,-189,2024-02-05 15:50:51.552,0.0
-3431,-33,-75,-166,284,-196,2024-02-05 15:50:51.609,0.0
-3439,-16,-79,-201,285,-190,2024-02-05 15:50:51.682,0.0
-3425,-50,-75,-171,312,-193,2024-02-05 15:50:51.725,0.0
-3417,-46,-131,-196,252,-209,2024-02-05 15:50:51.781,0.0
-3392,-35,-115,-154,300,-184,2024-02-05 15:50:51.838,0.0
-3443,-40,-118,-203,278,-191,2024-02-05 15:50:51.894,0.0
-3437,-57,-95,-193,258,-177,2024-02-05 15:50:51.950,0.0
-3438,-29,-128,-245,253,-153,2024-02-05 15:50:52.008,0.0
-3411,-28,-81,-205,226,-183,2024-02-05 15:50:52.065,0.0
-3415,-37,-72,-159,213,-161,2024-02-05 15:50:52.121,0.0
-3432,-31,-152,-162,229,-186,2024-02-05 15:50:52.170,0.0
-3428,-46,-129,-154,216,-177,2024-02-05 15:50:52.237,0.0
-3438,-37,-96,-154,97,-189,2024-02-05 15:50:52.286,0.0
-3388,-38,-122,-124,133,-185,2024-02-05 15:50:52.351,0.0
-3435,-16,-116,-141,153,-184,2024-02-05 15:50:52.407,0.0
-3418,-26,-113,-162,167,-176,2024-02-05 15:50:52.464,
-3440,-33,-113,-166,139,-188,2024-02-05 15:50:52.528,0.0
-3413,-40,-121,-152,149,-189,2024-02-05 15:50:52.577,0.0
-3445,-41,-125,-193,130,-204,2024-02-05 15:50:52.626,0.0
-3419,-20,-106,-212,134,-185,2024-02-05 15:50:52.690,0.0
-3442,-60,-132,-204,82,-202,2024-02-05 15:50:52.740,0.0
-3429,-48,-118,-206,170,-162,2024-02-05 15:50:52.797,0.0
-3402,-66,-100,-206,160,-189,2024-02-05 15:50:52.862,0.0
-3428,-47,-97,-166,125,-182,2024-02-05 15:50:52.926,0.0
-3415,-67,-89,-136,99,-175,2024-02-05 15:50:52.970,0.0
-3400,-28,-60,-88,125,-189,2024-02-05 15:50:53.026,0.0
-3420,-55,-96,-95,176,-179,2024-02-05 15:50:53.083,0.0
-3422,-17,-57,-107,230,-174,2024-02-05 15:50:53.140,0.0
-3448,-43,-134,-63,132,-182,2024-02-05 15:50:53.221,0.0
-3426,-26,-46,-64,130,-196,2024-02-05 15:50:53.253,0.0
-3410,-31,-101,-116,123,-155,2024-02-05 15:50:53.310,0.0
-3451,-54,-111,-133,154,-174,2024-02-05 15:50:53.367,0.0
-3419,-32,-92,-198,179,-181,2024-02-05 15:50:53.448,0.0
-3413,-59,-110,-191,178,-175,2024-02-05 15:50:53.483,0.0
-3415,-34,-61,-203,174,-184,2024-02-05 15:50:53.539,0.0
-3435,-44,-66,-210,178,-147,2024-02-05 15:50:53.591,
-3410,-32,-101,-202,181,-158,2024-02-05 15:50:53.648,0.0
-3432,-35,-108,-181,190,-152,2024-02-05 15:50:53.705,0.0
-3434,-46,-32,-123,255,-138,2024-02-05 15:50:53.762,0.0
-3436,-51,-34,-95,229,-154,2024-02-05 15:50:53.829,0.0
-3428,-46,-58,-38,164,-157,2024-02-05 15:50:53.885,0.0
-3412,-40,-50,23,157,-161,2024-02-05 15:50:53.932,0.0
-3435,-25,-85,45,176,-131,2024-02-05 15:50:53.989,0.0
-3416,-58,-40,54,269,-144,2024-02-05 15:50:54.045,0.0
-3430,-27,-76,30,338,-135,2024-02-05 15:50:54.110,0.0
-3438,-42,-93,65,297,-161,2024-02-05 15:50:54.166,0.0
-3447,-22,-116,17,245,-127,2024-02-05 15:50:54.226,0.0
-3444,-28,-106,-5,208,-108,2024-02-05 15:50:54.276,0.0
-3409,2,-116,-28,236,-146,2024-02-05 15:50:54.332,0.0
-3426,-14,-145,-56,179,-164,2024-02-05 15:50:54.390,0.0
-3402,-13,-147,-92,167,-208,2024-02-05 15:50:54.448,0.0
-3436,-19,-135,-168,247,-208,2024-02-05 15:50:54.504,0.0
-3437,-22,-122,-186,263,-173,2024-02-05 15:50:54.561,0.0
-3414,-25,-108,-185,309,-152,2024-02-05 15:50:54.616,0.0
-3417,-20,-109,-121,358,-131,2024-02-05 15:50:54.683,0.0
-3403,0,-98,-126,361,-171,2024-02-05 15:50:54.732,
-3418,-8,-136,-150,347,-163,2024-02-05 15:50:54.781,0.0
-3439,-22,-136,-170,342,-194,2024-02-05 15:50:54.839,0.0
-3450,-27,-103,-204,333,-162,2024-02-05 15:50:54.896,0.0
-3435,-43,-135,-170,278,-207,2024-02-05 15:50:54.955,0.0
-3444,-10,-124,-122,331,-204,2024-02-05 15:50:55.011,0.0
-3422,-8,-113,-96,325,-184,2024-02-05 15:50:55.093,0.0
-3421,-29,-125,-112,434,-176,2024-02-05 15:50:55.141,0.0
-3430,-27,-145,-136,293,-180,2024-02-05 15:50:55.181,0.0
-3396,-20,-138,-134,319,-154,2024-02-05 15:50:55.233,0.0
-3411,-31,-151,-52,351,-180,2024-02-05 15:50:55.299,0.0
-3408,-36,-181,-85,390,-210,2024-02-05 15:50:55.350,0.0
-3430,0,-167,-155,366,-204,2024-02-05 15:50:55.407,0.0
-3415,-37,-186,-161,361,-177,2024-02-05 15:50:55.472,0.0
-3446,-18,-194,-154,296,-155,2024-02-05 15:50:55.521,0.0
-3433,-27,-204,-133,238,-171,2024-02-05 15:50:55.581,0.0
-3452,-12,-177,-191,194,-174,2024-02-05 15:50:55.639,0.0
-3398,-7,-182,-234,172,-196,2024-02-05 15:50:55.690,0.0
-3407,-32,-213,-165,183,-167,2024-02-05 15:50:55.756,0.0
-3439,-11,-196,-191,210,-141,2024-02-05 15:50:55.806,0.0
-3413,11,-201,-161,186,-141,2024-02-05 15:50:55.865,
-3404,-29,-173,-152,201,-191,2024-02-05 15:50:55.922,0.0
-3408,1,-204,-143,205,-208,2024-02-05 15:50:55.972,0.0
-3405,-29,-213,-189,246,-172,2024-02-05 15:50:56.038,0.0
-3439,-8,-196,-126,187,-196,2024-02-05 15:50:56.090,0.0
-3393,-22,-187,-128,188,-198,2024-02-05 15:50:56.161,0.0
-3435,1,-212,-149,138,-199,2024-02-05 15:50:56.201,0.0
-3438,-36,-188,-164,138,-198,2024-02-05 15:50:56.257,0.0
-3441,-3,-237,-300,66,-178,2024-02-05 15:50:56.314,0.0
-3396,-36,-184,-261,-165,-210,2024-02-05 15:50:56.373,0.0
-3419,-66,-169,-63,-85,-232,2024-02-05 15:50:56.430,0.0
-3403,-15,-136,71,-131,-233,2024-02-05 15:50:56.488,0.0
-3417,7,-198,-137,-147,-193,2024-02-05 15:50:56.545,0.0
-3402,-16,-191,-456,38,-150,2024-02-05 15:50:56.604,0.0
-3377,-49,-166,-534,335,-175,2024-02-05 15:50:56.663,0.0
-3393,-49,-129,-369,543,-270,2024-02-05 15:50:56.714,0.0
-3461,-41,-109,-98,-227,-327,2024-02-05 15:50:56.779,0.0
-3499,-27,-182,-159,-324,-271,2024-02-05 15:50:56.829,0.0
-3416,-33,-113,-273,-411,-158,2024-02-05 15:50:56.886,0.0
-3422,-51,-162,-332,-411,-59,2024-02-05 15:50:56.948,0.0
-3388,-64,-238,-274,-265,-135,2024-02-05 15:50:56.997,
-3354,-16,-176,-230,230,-174,2024-02-05 15:50:57.047,0.0
-3405,-13,-8,-422,-248,-51,2024-02-05 15:50:57.113,0.0
-3440,-24,28,-629,-608,-30,2024-02-05 15:50:57.170,0.0
-3458,-20,-58,-528,135,-169,2024-02-05 15:50:57.218,0.0
-3509,-46,8,-297,-95,-112,2024-02-05 15:50:57.283,0.0
-3354,-104,-98,125,361,-163,2024-02-05 15:50:57.340,0.0
-3386,19,-30,379,571,-216,2024-02-05 15:50:57.393,0.0
-3475,63,54,279,-1046,-218,2024-02-05 15:50:57.449,0.0
-3428,-4,95,124,-1106,-248,2024-02-05 15:50:57.506,0.0
-3489,-76,30,78,-202,-230,2024-02-05 15:50:57.571,0.0
-3497,-44,-101,204,-487,-195,2024-02-05 15:50:57.623,0.0
-3325,-27,-2,290,301,-288,2024-02-05 15:50:57.680,0.0
-3400,32,99,259,637,-325,2024-02-05 15:50:57.739,0.0
-3525,37,25,-226,314,-192,2024-02-05 15:50:57.788,0.0
-3489,2,103,-366,-483,74,2024-02-05 15:50:57.844,0.0
-3429,-18,32,-212,-295,-35,2024-02-05 15:50:57.901,0.0
-3386,-34,45,-257,-102,-146,2024-02-05 15:50:57.954,0.0
-3396,21,70,-545,384,-281,2024-02-05 15:50:58.011,0.0
-3474,6,46,-846,72,-265,2024-02-05 15:50:58.068,0.0
-3456,-65,102,-849,319,-242,2024-02-05 15:50:58.124,
