acceleration_x,acceleration_y,acceleration_z,gyroscope_x,gyroscope_y,gyroscope_z,timestamp,label
-13768,232,1564,-81,264,-246,2024-01-24 11:13:50,0.0
-13676,276,1568,-125,280,-191,2024-01-24 11:13:50,0.0
-13796,312,1632,-135,346,-184,2024-01-24 11:13:50,0.0
-13740,364,1616,-157,451,-168,2024-01-24 11:13:50,0.0
-13896,376,1544,-221,385,-122,2024-01-24 11:13:50,0.0
-13796,348,1692,-229,292,-142,2024-01-24 11:13:50,0.0
-13828,284,1672,-183,218,-189,2024-01-24 11:13:50,0.0
-13816,276,1704,-139,308,-234,2024-01-24 11:13:50,0.0
-13888,136,1596,-150,340,-227,2024-01-24 11:13:50,0.0
-13828,172,1720,-132,305,-188,2024-01-24 11:13:50,0.0
-13872,244,1708,-156,197,-28,2024-01-24 11:13:50,0.0
-13772,344,1768,-137,321,-25,2024-01-24 11:13:50,0.0
-13860,196,1720,-41,563,-102,2024-01-24 11:13:50,0.0
-14012,120,1632,33,571,-225,2024-01-24 11:13:50,0.0
-14084,256,1564,60,347,-262,2024-01-24 11:13:50,0.0
-14060,84,1396,-152,360,-272,2024-01-24 11:13:50,0.0
-13256,924,1796,-8,-445,-422,2024-01-24 11:13:50,0.0
-13396,512,1252,-31,664,229,2024-01-24 11:13:50,0.0
-14252,-48,1224,-189,921,-216,2024-01-24 11:13:50,0.0
-14016,232,1908,-206,479,-159,2024-01-24 11:13:50,0.0
-14024,160,2044,-102,184,-203,2024-01-24 11:13:50,0.0
-13876,256,1360,-149,252,-160,2024-01-24 11:13:50,0.0
-13752,360,1576,-168,342,-137,2024-01-24 11:13:50,0.0
-13920,420,1564,-164,317,-111,2024-01-24 11:13:50,0.0
-13968,340,1544,-140,245,-159,2024-01-24 11:13:50,0.0
-13860,324,1524,-205,135,-157,2024-01-24 11:13:50,0.0
-13872,316,1580,-213,165,-153,2024-01-24 11:13:50,0.0
-13756,368,1568,-233,179,-140,2024-01-24 11:13:50,0.0
-13772,236,1464,-250,311,-145,2024-01-24 11:13:50,0.0
-13728,296,1576,-192,469,-133,2024-01-24 11:13:50,0.0
-13840,344,1720,-202,484,-172,2024-01-24 11:13:50,0.0
-13904,352,1452,-161,409,-168,2024-01-24 11:13:50,0.0
-13904,200,1628,-206,309,-166,2024-01-24 11:13:50,0.0
-13924,296,1576,-203,256,-175,2024-01-24 11:13:50,0.0
-13800,292,1580,-185,308,-182,2024-01-24 11:13:50,0.0
-13816,360,1552,-163,418,-160,2024-01-24 11:13:51,0.0
-13880,432,1644,-141,403,-159,2024-01-24 11:13:51,0.0
-13876,396,1588,-174,343,-172,2024-01-24 11:13:51,0.0
-13900,380,1536,-168,332,-177,2024-01-24 11:13:51,0.0
-13784,304,1452,-178,243,-186,2024-01-24 11:13:51,0.0
-13856,340,1492,-157,169,-164,2024-01-24 11:13:51,0.0
-13904,396,1672,-159,247,-167,2024-01-24 11:13:51,0.0
-13848,344,1688,-157,297,-192,2024-01-24 11:13:51,0.0
-13752,376,1732,-139,296,-217,2024-01-24 11:13:51,0.0
-13912,272,1684,-118,273,-203,2024-01-24 11:13:51,0.0
-13892,336,1532,-132,258,-168,2024-01-24 11:13:51,0.0
-13920,284,1476,-132,211,-141,2024-01-24 11:13:51,0.0
-13860,280,1648,-123,188,-175,2024-01-24 11:13:51,0.0
-13916,416,1580,-106,202,-183,2024-01-24 11:13:51,0.0
-13800,348,1676,-116,174,-174,2024-01-24 11:13:51,0.0
-13848,404,1464,-130,155,-171,2024-01-24 11:13:51,0.0
-13740,412,1548,-180,218,-183,2024-01-24 11:13:51,0.0
-13804,512,1560,-170,271,-167,2024-01-24 11:13:51,0.0
-13768,420,1496,-195,353,-157,2024-01-24 11:13:51,0.0
-13852,536,1452,-216,363,-165,2024-01-24 11:13:51,0.0
-13888,532,1420,-217,320,-186,2024-01-24 11:13:51,0.0
-13768,412,1464,-264,314,-223,2024-01-24 11:13:51,0.0
-13784,296,1532,-286,309,-210,2024-01-24 11:13:51,0.0
-13904,384,1524,-307,294,-248,2024-01-24 11:13:51,0.0
-13900,316,1432,-302,310,-199,2024-01-24 11:13:51,0.0
-13860,368,1444,-358,296,-218,2024-01-24 11:13:51,0.0
-13916,280,1512,-307,312,-225,2024-01-24 11:13:51,0.0
-13808,336,1548,-297,245,-194,2024-01-24 11:13:51,0.0
-13864,292,1684,-297,257,-211,2024-01-24 11:13:51,0.0
-13840,208,1476,-231,279,-215,2024-01-24 11:13:51,0.0
-13836,192,1504,-220,362,-169,2024-01-24 11:13:51,0.0
-13920,384,1392,-244,406,-174,2024-01-24 11:13:51,0.0
-13756,356,1388,-224,472,-182,2024-01-24 11:13:51,0.0
-13852,304,1340,-214,613,-173,2024-01-24 11:13:51,0.0
-13932,264,1392,-207,597,-125,2024-01-24 11:13:51,0.0
-13900,276,1292,-152,490,-120,2024-01-24 11:13:51,0.0
-13900,208,1492,-97,334,-106,2024-01-24 11:13:51,0.0
-13864,252,1360,-130,204,-111,2024-01-24 11:13:51,0.0
-13852,244,1332,-68,206,-128,2024-01-24 11:13:51,0.0
-13756,340,1472,-51,215,-146,2024-01-24 11:13:51,0.0
-13744,316,1544,-34,270,-184,2024-01-24 11:13:51,0.0
-13792,412,1400,-46,234,-180,2024-01-24 11:13:51,0.0
-13828,452,1388,-86,238,-191,2024-01-24 11:13:51,0.0
-13664,296,1284,-89,265,-201,2024-01-24 11:13:51,0.0
-13752,328,1464,-159,333,-212,2024-01-24 11:13:51,0.0
-13852,340,1528,-199,319,-190,2024-01-24 11:13:51,0.0
-13972,412,1360,-272,254,-195,2024-01-24 11:13:51,0.0
-13892,276,1424,-330,177,-212,2024-01-24 11:13:51,0.0
-13888,276,1388,-359,183,-197,2024-01-24 11:13:51,0.0
-13844,252,1520,-400,189,-208,2024-01-24 11:13:51,0.0
-13728,312,1504,-403,167,-208,2024-01-24 11:13:51,0.0
-13940,272,1436,-422,227,-225,2024-01-24 11:13:51,0.0
-13896,268,1272,-410,251,-196,2024-01-24 11:13:51,0.0
-13924,216,1336,-432,224,-199,2024-01-24 11:13:51,0.0
-13992,232,1388,-431,200,-216,2024-01-24 11:13:51,0.0
-13864,396,1560,-403,108,-210,2024-01-24 11:13:51,0.0
-13920,328,1204,-382,141,-221,2024-01-24 11:13:51,0.0
-13924,264,1264,-334,140,-249,2024-01-24 11:13:51,0.0
-13776,324,1392,-320,181,-231,2024-01-24 11:13:51,0.0
-13836,268,1348,-292,196,-219,2024-01-24 11:13:52,0.0
-13864,208,1588,-249,179,-214,2024-01-24 11:13:52,0.0
-13976,124,1304,-205,90,-237,2024-01-24 11:13:52,0.0
-13892,168,1264,-156,9,-272,2024-01-24 11:13:52,0.0
-13892,252,1352,-123,-30,-212,2024-01-24 11:13:52,0.0
-13844,272,1264,-147,0,-200,2024-01-24 11:13:52,
-13820,328,1324,-110,85,-196,2024-01-24 11:13:52,0.0
-13760,316,1184,-128,106,-186,2024-01-24 11:13:52,0.0
-13752,452,1348,-94,132,-182,2024-01-24 11:13:52,0.0
-13816,408,1420,-117,225,-149,2024-01-24 11:13:52,0.0
-13784,340,1400,-147,249,-172,2024-01-24 11:13:52,0.0
-13860,248,1428,-179,267,-142,2024-01-24 11:13:52,0.0
-13792,284,1432,-183,253,-135,2024-01-24 11:13:52,0.0
-13868,236,1192,-187,300,-138,2024-01-24 11:13:52,0.0
-13960,248,1352,-210,335,-94,2024-01-24 11:13:52,0.0
-13860,360,1320,-226,298,-86,2024-01-24 11:13:52,0.0
-13968,436,1532,-337,216,-86,2024-01-24 11:13:52,0.0
-13928,352,1424,-287,203,-131,2024-01-24 11:13:52,0.0
-13864,412,1404,-315,148,-173,2024-01-24 11:13:52,0.0
-13900,404,1464,-368,46,-201,2024-01-24 11:13:52,0.0
-13860,316,1520,-436,36,-212,2024-01-24 11:13:52,0.0
-13840,416,1504,-457,99,-188,2024-01-24 11:13:52,0.0
-13872,344,1592,-430,118,-158,2024-01-24 11:13:52,0.0
-13784,620,1408,-411,80,-130,2024-01-24 11:13:52,0.0
-13728,660,1428,-459,113,-92,2024-01-24 11:13:52,0.0
-13608,616,1420,-493,229,-99,2024-01-24 11:13:52,0.0
-13656,676,1444,-472,401,-122,2024-01-24 11:13:52,0.0
-13732,692,1332,-514,438,-126,2024-01-24 11:13:52,0.0
-13820,688,1344,-493,455,-104,2024-01-24 11:13:52,0.0
-13748,540,1412,-487,424,-102,2024-01-24 11:13:52,0.0
-13952,608,1536,-511,410,-95,2024-01-24 11:13:52,0.0
-14044,612,1492,-508,342,-98,2024-01-24 11:13:52,0.0
-13916,568,1432,-589,174,-117,2024-01-24 11:13:52,0.0
-13936,584,1324,-572,91,-141,2024-01-24 11:13:52,0.0
-13804,628,1356,-614,70,-183,2024-01-24 11:13:52,0.0
-13776,648,1456,-586,135,-223,2024-01-24 11:13:52,0.0
-13736,732,1476,-612,245,-251,2024-01-24 11:13:52,0.0
-13868,440,1688,-615,248,-246,2024-01-24 11:13:52,0.0
-13928,568,1468,-647,233,-306,2024-01-24 11:13:52,0.0
-13764,432,1476,-640,239,-300,2024-01-24 11:13:52,0.0
-13860,460,1708,-634,240,-256,2024-01-24 11:13:52,0.0
-13888,584,1600,-617,146,-213,2024-01-24 11:13:52,0.0
-13732,784,1364,-610,99,-215,2024-01-24 11:13:52,0.0
-13808,664,1424,-563,154,-252,2024-01-24 11:13:52,0.0
-13792,692,1396,-588,181,-208,2024-01-24 11:13:52,0.0
-13732,696,1176,-612,222,-226,2024-01-24 11:13:52,0.0
-13744,572,1520,-624,201,-221,2024-01-24 11:13:52,0.0
-13992,220,1620,-523,63,-245,2024-01-24 11:13:52,0.0
-13972,328,1396,-496,-119,-249,2024-01-24 11:13:52,0.0
-13856,192,1420,-381,-97,-315,2024-01-24 11:13:52,0.0
-13764,276,1304,-333,35,-294,2024-01-24 11:13:52,0.0
-13892,300,1612,-234,-30,-299,2024-01-24 11:13:52,0.0
-13776,420,1372,-220,-43,-262,2024-01-24 11:13:52,0.0
-13648,228,1416,-99,-27,-310,2024-01-24 11:13:52,0.0
-13700,292,1364,-41,94,-348,2024-01-24 11:13:52,0.0
-13688,292,1208,-38,237,-353,2024-01-24 11:13:52,0.0
-13788,428,1320,-66,375,-304,2024-01-24 11:13:52,0.0
-13896,452,1300,-86,394,-264,2024-01-24 11:13:52,0.0
-13876,352,1404,-135,380,-248,2024-01-24 11:13:53,0.0
-13892,268,1252,-120,355,-256,2024-01-24 11:13:53,0.0
-13876,312,1320,-111,317,-284,2024-01-24 11:13:53,0.0
-13748,276,1376,-130,320,-250,2024-01-24 11:13:53,0.0
-13760,248,1388,-106,375,-264,2024-01-24 11:13:53,0.0
-13788,188,1328,-113,434,-263,2024-01-24 11:13:53,0.0
-13688,148,1280,-82,492,-275,2024-01-24 11:13:53,0.0
-13760,216,1256,-2,531,-310,2024-01-24 11:13:53,0.0
-13824,228,1108,4,542,-283,2024-01-24 11:13:53,0.0
-13816,256,1256,50,602,-290,2024-01-24 11:13:53,0.0
-13992,212,1240,64,634,-266,2024-01-24 11:13:53,0.0
-13948,288,980,78,564,-222,2024-01-24 11:13:53,0.0
-13816,236,976,122,557,-212,2024-01-24 11:13:53,0.0
-13736,216,940,123,664,-253,2024-01-24 11:13:53,0.0
-13920,176,928,173,761,-292,2024-01-24 11:13:53,0.0
-14052,116,748,126,767,-334,2024-01-24 11:13:53,0.0
-13904,256,660,243,731,-372,2024-01-24 11:13:53,0.0
-13828,32,560,169,740,-410,2024-01-24 11:13:53,0.0
-13796,52,500,226,928,-432,2024-01-24 11:13:53,0.0
-13820,-392,296,276,1351,-569,2024-01-24 11:13:53,0.0
-13780,-472,332,607,1614,-498,2024-01-24 11:13:53,0.0
-14020,-284,112,840,1681,-395,2024-01-24 11:13:53,0.0
-13708,-748,-76,1165,1810,-273,2024-01-24 11:13:53,0.0
-13460,-900,648,1582,1703,-473,2024-01-24 11:13:53,0.0
-13672,-1112,580,2077,1875,-375,2024-01-24 11:13:53,0.0
-13512,-1584,952,2514,2096,-365,2024-01-24 11:13:53,0.0
-13808,-1404,1532,2881,2171,-331,2024-01-24 11:13:53,0.0
-14832,-1136,1784,3130,2160,-5,2024-01-24 11:13:53,0.0
-14476,-536,1684,2959,1460,-215,2024-01-24 11:13:53,0.0
-14956,-380,1828,2757,651,-537,2024-01-24 11:13:53,0.0
-14424,-208,2620,2073,163,-1036,2024-01-24 11:13:53,0.0
-13644,-584,2192,1838,319,-906,2024-01-24 11:13:53,0.0
-13324,-204,1156,1585,958,-655,2024-01-24 11:13:53,0.0
-13044,-704,904,1122,1105,-433,2024-01-24 11:13:53,0.0
-13096,-704,1224,779,1155,-463,2024-01-24 11:13:53,0.0
-12820,-716,944,658,1588,-222,2024-01-24 11:13:53,0.0
-12552,-1244,1364,769,2195,-56,2024-01-24 11:13:53,0.0
-13080,-1036,1724,960,2696,-380,2024-01-24 11:13:53,0.0
-13304,-852,1124,1096,2701,355,2024-01-24 11:13:53,0.0
-13800,-824,796,929,2896,627,2024-01-24 11:13:53,0.0
-15244,1168,1256,703,1121,1744,2024-01-24 11:13:53,0.0
-13276,1296,1808,373,370,2505,2024-01-24 11:13:53,0.0
-13864,1032,2492,407,497,2613,2024-01-24 11:13:53,0.0
-13384,1548,1244,5,-1876,4204,2024-01-24 11:13:53,0.0
-12860,-1280,1436,-670,-366,2643,2024-01-24 11:13:53,0.0
-13368,-1368,-240,-1459,-1447,1455,2024-01-24 11:13:53,0.0
-10480,-2232,-836,-2417,-2657,-248,2024-01-24 11:13:53,0.0
-8192,-1612,1220,-2639,-2998,-2068,2024-01-24 11:13:53,
-6788,4,1488,-2769,-1797,-2365,2024-01-24 11:13:53,0.0
-4684,916,-2240,-2107,1496,-1936,2024-01-24 11:13:53,0.0
-10280,916,-2780,-834,8116,-496,2024-01-24 11:13:53,0.0
-13448,-2352,196,1531,10093,639,2024-01-24 11:13:53,0.0
-16144,-5224,-3328,1515,6300,-1020,2024-01-24 11:13:53,0.0
-18920,-3124,-4368,63,3675,-2362,2024-01-24 11:13:53,0.0
-17228,2524,-2920,1624,1362,-912,2024-01-24 11:13:53,0.0
-17620,5528,-920,2086,-229,2020,2024-01-24 11:13:53,0.0
-16368,6140,-1468,1716,-2110,4482,2024-01-24 11:13:53,0.0
-15632,3564,-2032,1242,-2547,5310,2024-01-24 11:13:53,0.0
-13824,536,-3532,638,-3713,4027,2024-01-24 11:13:53,0.0
-12148,1080,-2532,-626,-5670,2023,2024-01-24 11:13:54,0.0
-8572,2680,-960,-1147,-6309,1534,2024-01-24 11:13:54,0.0
-10552,2540,1720,-802,-4591,3301,2024-01-24 11:13:54,0.0
-8968,1364,3976,-928,-3050,4177,2024-01-24 11:13:54,0.0
-8176,324,3812,-733,-2207,3645,2024-01-24 11:13:54,0.0
-7840,436,3184,-963,-2364,2240,2024-01-24 11:13:54,0.0
-7936,2224,3872,-1428,-2739,-13,2024-01-24 11:13:54,0.0
-7568,4192,4032,-1672,-3631,-1354,2024-01-24 11:13:54,0.0
-7712,2196,4348,-909,-3216,-874,2024-01-24 11:13:54,0.0
-7128,132,2500,-232,-946,-22,2024-01-24 11:13:54,0.0
-4236,-2232,-200,-680,983,-1504,2024-01-24 11:13:54,0.0
-8056,480,128,-827,3165,-2839,2024-01-24 11:13:54,0.0
-16708,5824,1104,-1593,3627,-620,2024-01-24 11:13:54,0.0
-18912,5040,2352,-2662,417,1939,2024-01-24 11:13:54,0.0
-12836,1680,2152,-2189,-1974,488,2024-01-24 11:13:54,0.0
-14048,1404,1872,-1233,-4748,-312,2024-01-24 11:13:54,0.0
-16848,1256,-224,-1795,-8923,254,2024-01-24 11:13:54,0.0
-15512,2384,304,-2007,-8925,700,2024-01-24 11:13:54,0.0
-16028,1952,3408,-1209,-11113,1254,2024-01-24 11:13:54,0.0
-15076,1536,5460,-748,-13757,1614,2024-01-24 11:13:54,0.0
-12916,672,4872,-280,-13785,1545,2024-01-24 11:13:54,0.0
-11964,1968,4960,-318,-10575,1647,2024-01-24 11:13:54,0.0
-11644,2228,5876,-288,-8489,1411,2024-01-24 11:13:54,0.0
-12376,1488,5132,-203,-7872,1188,2024-01-24 11:13:54,0.0
-13512,876,4896,-121,-7224,1193,2024-01-24 11:13:54,0.0
-14100,-776,5384,678,-6790,-182,2024-01-24 11:13:54,0.0
-14736,760,4876,1556,-5611,-1013,2024-01-24 11:13:54,0.0
-15388,2752,4068,1496,-5203,-1211,2024-01-24 11:13:54,0.0
-15128,2444,3728,848,-5522,-367,2024-01-24 11:13:54,0.0
-15568,2736,4400,377,-5253,347,2024-01-24 11:13:54,0.0
-15388,2820,5516,41,-5159,1119,2024-01-24 11:13:54,0.0
-14988,4432,5340,-760,-5256,1809,2024-01-24 11:13:54,0.0
-16340,5140,7728,-1840,-5365,3292,2024-01-24 11:13:54,0.0
-15820,3068,8580,-1160,-6830,4094,2024-01-24 11:13:54,0.0
-14676,1304,7540,-862,-9211,3783,2024-01-24 11:13:54,0.0
-13988,1304,6860,-1061,-10440,3294,2024-01-24 11:13:54,0.0
-13772,2024,7472,-1441,-9502,2524,2024-01-24 11:13:54,0.0
-14484,1708,7532,-1838,-8602,2098,2024-01-24 11:13:54,0.0
-15228,1892,7728,-2588,-8214,1735,2024-01-24 11:13:54,0.0
-13936,1960,8008,-3084,-8726,1374,2024-01-24 11:13:54,0.0
-14664,2228,8748,-3555,-8722,1173,2024-01-24 11:13:54,0.0
-14204,1772,9124,-3658,-8183,987,2024-01-24 11:13:54,0.0
-14520,2280,10132,-3428,-7137,605,2024-01-24 11:13:54,0.0
-13564,2572,11252,-2574,-5659,159,2024-01-24 11:13:54,0.0
-13528,2496,10728,-2229,-5297,-401,2024-01-24 11:13:54,0.0
-14004,3496,11228,-2233,-5050,-561,2024-01-24 11:13:54,0.0
-14296,3752,11180,-2395,-5022,-132,2024-01-24 11:13:54,0.0
-14180,2888,11068,-2415,-4454,133,2024-01-24 11:13:54,0.0
-15140,3312,11488,-2263,-3976,207,2024-01-24 11:13:54,0.0
-15284,3472,12188,-2100,-3935,63,2024-01-24 11:13:54,0.0
-15880,3048,12168,-1621,-3175,288,2024-01-24 11:13:54,0.0
-15656,3392,12316,-1402,-2399,355,2024-01-24 11:13:54,0.0
-16100,4012,12132,-1413,-1722,249,2024-01-24 11:13:54,0.0
-15648,4168,12468,-1312,-539,81,2024-01-24 11:13:54,0.0
-15268,3256,12612,-939,435,-438,2024-01-24 11:13:54,0.0
-15148,2976,12884,-432,1413,-851,2024-01-24 11:13:54,0.0
-14904,4116,12920,-279,2425,-922,2024-01-24 11:13:54,0.0
-14800,4468,12920,-459,3085,-604,2024-01-24 11:13:54,0.0
-14600,3776,13156,-604,3871,-316,2024-01-24 11:13:54,0.0
-14452,3192,13784,150,5191,-244,2024-01-24 11:13:55,0.0
-13988,2928,14148,943,6202,-614,2024-01-24 11:13:55,0.0
-14188,3256,13704,1171,6570,-682,2024-01-24 11:13:55,0.0
-13376,2844,13016,1068,6538,-315,2024-01-24 11:13:55,0.0
-13248,1932,12744,1030,6915,-526,2024-01-24 11:13:55,0.0
-13504,1496,12884,1397,7283,-1049,2024-01-24 11:13:55,0.0
-13448,2056,12416,1732,7167,-1392,2024-01-24 11:13:55,0.0
-13612,2148,11896,1757,6993,-1622,2024-01-24 11:13:55,0.0
-13672,1644,11400,1758,6807,-1991,2024-01-24 11:13:55,0.0
-13196,1940,10968,1908,6580,-2498,2024-01-24 11:13:55,0.0
-13836,2684,9508,1918,6681,-2677,2024-01-24 11:13:55,0.0
-13856,2260,9632,1982,6665,-2386,2024-01-24 11:13:55,0.0
-13916,1744,9000,2008,6768,-2550,2024-01-24 11:13:55,0.0
-13908,1588,8704,2246,6929,-2633,2024-01-24 11:13:55,0.0
-12756,1548,8416,2202,7058,-2880,2024-01-24 11:13:55,0.0
-12368,1268,8488,2403,8312,-2975,2024-01-24 11:13:55,0.0
-12564,1148,8404,2422,9406,-2925,2024-01-24 11:13:55,0.0
-12556,920,8340,2526,10145,-3076,2024-01-24 11:13:55,0.0
-12784,856,7924,2919,10904,-3298,2024-01-24 11:13:55,0.0
-12668,272,6888,3284,10960,-3487,2024-01-24 11:13:55,0.0
-12608,108,6240,3467,10295,-3741,2024-01-24 11:13:55,0.0
-12932,492,5208,3434,9114,-3793,2024-01-24 11:13:55,0.0
-13428,348,4936,3318,7280,-3692,2024-01-24 11:13:55,0.0
-13652,536,5096,3100,4883,-3660,2024-01-24 11:13:55,0.0
-13140,844,4748,2977,3640,-3594,2024-01-24 11:13:55,0.0
-13136,824,4656,2931,3467,-3397,2024-01-24 11:13:55,0.0
-13020,236,4408,2921,3743,-3116,2024-01-24 11:13:55,0.0
-13648,-80,4076,2481,2819,-3068,2024-01-24 11:13:55,0.0
-13952,212,4404,1987,922,-2983,2024-01-24 11:13:55,0.0
-13920,752,3900,1652,-1585,-2851,2024-01-24 11:13:55,
-13248,388,3584,1130,-2952,-2626,2024-01-24 11:13:55,0.0
-13088,344,3928,914,-3099,-1906,2024-01-24 11:13:55,0.0
-13420,1376,4124,-1180,-4895,-1735,2024-01-24 11:13:55,0.0
-11316,76,4308,321,-2457,-753,2024-01-24 11:13:55,0.0
-10104,284,2844,562,1066,-807,2024-01-24 11:13:55,0.0
-11972,124,3828,438,2993,-1084,2024-01-24 11:13:55,0.0
-12596,-148,3820,481,1861,-999,2024-01-24 11:13:55,0.0
-13076,280,4052,312,330,-992,2024-01-24 11:13:55,0.0
-12904,256,4004,164,-1129,-890,2024-01-24 11:13:55,0.0
-12036,-8,4356,104,-2002,-990,2024-01-24 11:13:55,0.0
-11660,-208,4356,250,-2045,-1174,2024-01-24 11:13:55,0.0
-11312,-180,4048,130,-2587,-1323,2024-01-24 11:13:55,0.0
-10608,8,4104,140,-2208,-1353,2024-01-24 11:13:55,0.0
-10616,96,3736,-53,-2400,-1238,2024-01-24 11:13:55,0.0
-10444,-12,4208,-30,-1699,-1030,2024-01-24 11:13:55,0.0
-10748,-328,4080,-285,-1937,-882,2024-01-24 11:13:55,0.0
-10912,-352,4644,-234,-1813,-926,2024-01-24 11:13:55,0.0
-10844,52,4620,-181,-1650,-861,2024-01-24 11:13:55,0.0
-10728,-12,4336,-319,-2356,-533,2024-01-24 11:13:55,0.0
-10388,-248,4428,-433,-1357,-301,2024-01-24 11:13:55,0.0
-10444,-340,4500,-671,-1512,-274,2024-01-24 11:13:55,0.0
-10996,-204,4800,-689,-764,-211,2024-01-24 11:13:55,0.0
-11108,-268,4784,-815,-190,-215,2024-01-24 11:13:55,0.0
-11592,-212,4028,-952,-903,-365,2024-01-24 11:13:55,0.0
-11596,-156,4264,-968,-900,-451,2024-01-24 11:13:55,0.0
-11132,-356,4936,-873,-370,-413,2024-01-24 11:13:55,0.0
-11388,-520,4800,-954,4,-194,2024-01-24 11:13:55,0.0
-11668,-508,4768,-855,1217,-105,2024-01-24 11:13:55,0.0
-12076,-328,4724,-859,1868,297,2024-01-24 11:13:56,0.0
-12588,28,4948,-860,1343,480,2024-01-24 11:13:56,0.0
-13004,324,5328,-879,1557,767,2024-01-24 11:13:56,0.0
-13604,636,5928,-750,1729,1127,2024-01-24 11:13:56,0.0
-13088,152,3872,-961,1009,1337,2024-01-24 11:13:56,0.0
-12192,-160,3228,-1045,866,921,2024-01-24 11:13:56,0.0
-11172,-484,2988,-1055,992,478,2024-01-24 11:13:56,0.0
-11424,-268,2876,-1011,1312,-121,2024-01-24 11:13:56,0.0
-11660,-568,3320,-1034,1709,-512,2024-01-24 11:13:56,0.0
-11768,-588,3664,-1070,1416,-710,2024-01-24 11:13:56,0.0
-12056,-244,3728,-1169,1829,-838,2024-01-24 11:13:56,0.0
-13560,168,3536,-1275,3032,-818,2024-01-24 11:13:56,0.0
-16864,476,2948,-1265,3556,-131,2024-01-24 11:13:56,0.0
-19012,352,2592,-1424,3406,800,2024-01-24 11:13:56,0.0
-18876,32,3016,-1579,1694,1251,2024-01-24 11:13:56,0.0
-16752,-1128,3880,-1365,-1323,973,2024-01-24 11:13:56,0.0
-14628,-1516,3896,-887,-2704,310,2024-01-24 11:13:56,0.0
-12800,-1668,4616,-152,-2550,-259,2024-01-24 11:13:56,0.0
-12372,-1740,5320,482,-1586,-595,2024-01-24 11:13:56,0.0
-12564,-1132,5776,1070,-832,-673,2024-01-24 11:13:56,0.0
-12376,-1048,5772,1419,-632,-785,2024-01-24 11:13:56,0.0
-11448,-884,5444,1764,-330,-1187,2024-01-24 11:13:56,0.0
-11512,-800,5036,1904,696,-1439,2024-01-24 11:13:56,0.0
-12600,-180,4760,1962,2085,-1270,2024-01-24 11:13:56,0.0
-13980,184,4664,1751,2735,-856,2024-01-24 11:13:56,0.0
-14592,576,4580,1459,2276,-322,2024-01-24 11:13:56,0.0
-14200,788,4900,1158,1325,-43,2024-01-24 11:13:56,0.0
-14096,600,4776,879,900,112,2024-01-24 11:13:56,0.0
-13656,168,4588,598,778,239,2024-01-24 11:13:56,0.0
-13152,-116,4388,276,608,173,2024-01-24 11:13:56,0.0
-13088,-120,4692,202,597,36,2024-01-24 11:13:56,0.0
-13396,-296,4604,308,745,-73,2024-01-24 11:13:56,0.0
-14032,-392,4400,356,655,-66,2024-01-24 11:13:56,0.0
-14112,-216,4052,298,292,-24,2024-01-24 11:13:56,0.0
-14152,-8,3892,242,111,-48,2024-01-24 11:13:56,0.0
-13932,44,3624,41,305,-101,2024-01-24 11:13:56,0.0
-14108,160,3744,-187,870,-143,2024-01-24 11:13:56,0.0
-14356,364,4088,-296,947,-271,2024-01-24 11:13:56,0.0
-14384,276,4124,-323,348,-372,2024-01-24 11:13:56,0.0
-13560,36,4292,-438,-97,-328,2024-01-24 11:13:56,0.0
-13312,-104,4428,-513,101,-277,2024-01-24 11:13:56,0.0
-13268,-184,4284,-581,518,-283,2024-01-24 11:13:56,0.0
-13600,-160,4428,-652,628,-219,2024-01-24 11:13:56,0.0
-13840,-12,4660,-752,343,-166,2024-01-24 11:13:56,0.0
-13728,56,4452,-836,48,-122,2024-01-24 11:13:56,0.0
-13512,112,4328,-893,36,-99,2024-01-24 11:13:56,0.0
-13564,84,4432,-881,139,-53,2024-01-24 11:13:56,0.0
-13448,144,4340,-792,406,-63,2024-01-24 11:13:56,0.0
-13696,-44,4540,-768,496,-55,2024-01-24 11:13:56,0.0
-13832,-60,4472,-710,449,-152,2024-01-24 11:13:56,0.0
-13764,-80,4408,-617,276,-204,2024-01-24 11:13:56,0.0
-13644,-408,4368,-542,304,-317,2024-01-24 11:13:56,0.0
-13608,-448,4340,-400,535,-410,2024-01-24 11:13:56,0.0
-13616,-340,4284,-287,560,-515,2024-01-24 11:13:56,0.0
-13512,-296,4524,-137,554,-611,2024-01-24 11:13:56,0.0
-13448,-444,4608,-26,662,-697,2024-01-24 11:13:56,0.0
-13260,-552,4552,89,1024,-819,2024-01-24 11:13:56,0.0
-13204,-700,4560,110,1344,-966,2024-01-24 11:13:56,0.0
-13384,-876,4404,126,1520,-1168,2024-01-24 11:13:56,0.0
-13676,-892,4568,184,1491,-1289,2024-01-24 11:13:57,0.0
-14004,-784,4356,302,1513,-1151,2024-01-24 11:13:57,0.0
-14036,-656,4064,331,1445,-989,2024-01-24 11:13:57,0.0
-14084,-588,3764,298,1178,-797,2024-01-24 11:13:57,0.0
-13852,-592,3588,342,863,-753,2024-01-24 11:13:57,0.0
-13728,-784,3268,429,510,-663,2024-01-24 11:13:57,0.0
-13556,-664,3392,404,281,-605,2024-01-24 11:13:57,0.0
-13436,-664,3168,383,456,-617,2024-01-24 11:13:57,0.0
-13748,-608,3580,373,609,-639,2024-01-24 11:13:57,0.0
-14052,-924,3756,547,598,-588,2024-01-24 11:13:57,0.0
-13984,-968,3816,633,429,-522,2024-01-24 11:13:57,0.0
-13932,-1148,4072,631,345,-467,2024-01-24 11:13:57,0.0
-13832,-1044,3972,645,322,-337,2024-01-24 11:13:57,
-13548,-916,4076,694,334,-269,2024-01-24 11:13:57,0.0
-13336,-752,4112,766,371,-223,2024-01-24 11:13:57,0.0
-13344,-660,4192,790,455,-211,2024-01-24 11:13:57,0.0
-13380,-600,4192,814,454,-192,2024-01-24 11:13:57,0.0
-13648,-688,4012,828,529,-96,2024-01-24 11:13:57,0.0
-13856,-556,4064,845,554,59,2024-01-24 11:13:57,0.0
-14200,-556,3928,870,508,194,2024-01-24 11:13:57,0.0
-14088,-384,3960,827,304,321,2024-01-24 11:13:57,0.0
-13888,-544,3928,792,47,327,2024-01-24 11:13:57,0.0
-13684,-436,3788,688,-76,231,2024-01-24 11:13:57,0.0
-13676,-304,3608,694,-1,198,2024-01-24 11:13:57,0.0
-13892,-24,3572,632,29,212,2024-01-24 11:13:57,0.0
-13940,108,3296,467,150,350,2024-01-24 11:13:57,0.0
-13960,248,3392,195,322,473,2024-01-24 11:13:57,0.0
-13824,112,3516,-74,367,504,2024-01-24 11:13:57,0.0
-13984,8,3460,-438,319,448,2024-01-24 11:13:57,0.0
-13864,-124,3508,-588,134,317,2024-01-24 11:13:57,0.0
-13800,-160,3668,-763,-9,147,2024-01-24 11:13:57,0.0
-13692,-428,3732,-940,-3,-6,2024-01-24 11:13:57,0.0
-13860,-436,3856,-1003,-50,-38,2024-01-24 11:13:57,0.0
-13860,-500,3872,-1068,-202,-19,2024-01-24 11:13:57,0.0
-13780,-516,3752,-1070,-282,25,2024-01-24 11:13:57,0.0
-13716,-660,3720,-1054,-243,59,2024-01-24 11:13:57,0.0
-13500,-800,3684,-973,10,97,2024-01-24 11:13:57,0.0
-13532,-600,3712,-826,342,166,2024-01-24 11:13:57,0.0
-13688,-564,3728,-708,465,198,2024-01-24 11:13:57,0.0
-13604,-548,3584,-591,497,192,2024-01-24 11:13:57,0.0
-13720,-616,3652,-439,509,155,2024-01-24 11:13:57,0.0
-13752,-644,3612,-264,490,99,2024-01-24 11:13:57,0.0
-13800,-704,3512,-96,472,54,2024-01-24 11:13:57,0.0
-13824,-536,3548,-49,443,7,2024-01-24 11:13:57,0.0
-13920,-532,3692,67,352,-12,2024-01-24 11:13:57,0.0
-13768,-352,3756,117,290,56,2024-01-24 11:13:57,0.0
-13708,-236,3688,174,296,52,2024-01-24 11:13:57,0.0
-13684,-216,3884,198,351,37,2024-01-24 11:13:57,0.0
-13856,-88,3520,126,403,-17,2024-01-24 11:13:57,0.0
-13896,-112,3692,-5,312,15,2024-01-24 11:13:57,0.0
-14024,16,3708,-128,219,119,2024-01-24 11:13:57,0.0
-13980,60,3732,-320,109,218,2024-01-24 11:13:57,0.0
-13816,168,3636,-483,50,302,2024-01-24 11:13:57,0.0
-13576,96,3940,-640,158,411,2024-01-24 11:13:57,0.0
-13504,-76,3884,-714,415,451,2024-01-24 11:13:57,0.0
-13820,88,3972,-752,537,461,2024-01-24 11:13:57,0.0
-13792,244,3884,-783,493,377,2024-01-24 11:13:57,0.0
-13728,84,4016,-646,483,324,2024-01-24 11:13:57,0.0
-16416,-292,5176,-244,-1318,-416,2024-01-24 11:13:58,0.0
-12908,228,3368,-837,890,797,2024-01-24 11:13:58,0.0
-14540,312,3892,-525,653,327,2024-01-24 11:13:58,0.0
-13796,448,3920,-644,152,419,2024-01-24 11:13:58,0.0
-13800,676,3620,-731,243,456,2024-01-24 11:13:58,0.0
-13932,728,3668,-917,104,568,2024-01-24 11:13:58,0.0
-13912,872,3868,-1018,-133,639,2024-01-24 11:13:58,0.0
-13608,840,3832,-1141,-204,616,2024-01-24 11:13:58,0.0
-13584,936,3648,-1246,-180,559,2024-01-24 11:13:58,0.0
-13348,788,3792,-1336,-63,477,2024-01-24 11:13:58,0.0
-13488,748,3928,-1397,91,384,2024-01-24 11:13:58,0.0
-13544,696,4040,-1478,186,306,2024-01-24 11:13:58,0.0
-13540,844,3860,-1516,228,327,2024-01-24 11:13:58,0.0
-13616,868,3908,-1576,415,351,2024-01-24 11:13:58,0.0
-13512,992,4024,-1584,496,362,2024-01-24 11:13:58,0.0
-13472,744,4148,-1519,565,256,2024-01-24 11:13:58,0.0
-13432,548,4320,-1364,732,94,2024-01-24 11:13:58,0.0
-13648,296,4556,-1094,680,-82,2024-01-24 11:13:58,0.0
-13860,264,4700,-779,284,-243,2024-01-24 11:13:58,0.0
-13736,-52,4376,-570,130,-300,2024-01-24 11:13:58,0.0
-13688,-224,4472,-431,163,-293,2024-01-24 11:13:58,0.0
-13636,-172,4536,-218,-84,-319,2024-01-24 11:13:58,0.0
-13660,152,4484,-96,-309,-288,2024-01-24 11:13:58,0.0
-13784,604,4344,-64,-363,-212,2024-01-24 11:13:58,0.0
-13836,916,4444,-86,-306,-166,2024-01-24 11:13:58,0.0
-13744,1376,4188,-167,-317,-130,2024-01-24 11:13:58,0.0
-13704,1532,3972,-365,-211,-164,2024-01-24 11:13:58,0.0
-13740,1756,3856,-611,-5,-132,2024-01-24 11:13:58,0.0
-13832,1832,3692,-923,71,-89,2024-01-24 11:13:58,0.0
-13920,1956,3580,-1159,98,-63,2024-01-24 11:13:58,0.0
-13900,1824,3708,-1526,101,8,2024-01-24 11:13:58,0.0
-13792,1580,3620,-1885,68,0,2024-01-24 11:13:58,0.0
-13416,1316,3712,-2224,283,-29,2024-01-24 11:13:58,0.0
-13468,1044,3876,-2369,402,-55,2024-01-24 11:13:58,0.0
-13588,776,3776,-2439,465,-98,2024-01-24 11:13:58,0.0
-13540,340,4008,-2480,347,-198,2024-01-24 11:13:58,0.0
-13656,284,4160,-2478,185,-294,2024-01-24 11:13:58,0.0
-13572,132,4060,-2260,235,-367,2024-01-24 11:13:58,0.0
-13688,-28,4176,-2014,108,-493,2024-01-24 11:13:58,0.0
-13408,-204,4256,-1818,19,-671,2024-01-24 11:13:58,0.0
-13316,-352,3968,-1534,24,-790,2024-01-24 11:13:58,0.0
-13328,-612,3868,-1296,67,-1007,2024-01-24 11:13:58,0.0
-13740,-380,3736,-1080,331,-1013,2024-01-24 11:13:58,0.0
-13856,-240,3612,-890,342,-1014,2024-01-24 11:13:58,0.0
-13908,-128,3708,-613,231,-889,2024-01-24 11:13:58,0.0
-13704,-264,3564,-513,146,-872,2024-01-24 11:13:58,0.0
-13576,-492,3580,-411,174,-872,2024-01-24 11:13:58,0.0
-13664,-596,3504,-266,166,-945,2024-01-24 11:13:58,0.0
-13692,-644,3552,-117,238,-978,2024-01-24 11:13:58,0.0
-13748,-688,3780,26,413,-958,2024-01-24 11:13:58,0.0
-13828,-536,3940,197,606,-918,2024-01-24 11:13:58,0.0
-13680,-888,4192,365,581,-961,2024-01-24 11:13:58,0.0
-13868,-1132,4016,484,360,-1033,2024-01-24 11:13:58,0.0
-13792,-1060,3980,617,235,-997,2024-01-24 11:13:58,0.0
-13672,-1084,3744,781,179,-851,2024-01-24 11:13:58,
