acceleration_x,acceleration_y,acceleration_z,gyroscope_x,gyroscope_y,gyroscope_z,timestamp,label
-3444,-83,152,-204,177,-200,2024-02-05 15:57:36.658,0.0
-3458,-71,164,-237,189,-183,2024-02-05 15:57:36.707,0.0
-3442,-102,164,-224,201,-190,2024-02-05 15:57:36.766,0.0
-3441,-92,187,-264,131,-210,2024-02-05 15:57:36.824,0.0
-3449,-94,185,-309,209,-173,2024-02-05 15:57:36.882,0.0
-3424,-98,171,-240,157,-190,2024-02-05 15:57:36.938,0.0
-3453,-75,203,-218,160,-203,2024-02-05 15:57:37.018,0.0
-3439,-89,145,-219,170,-188,2024-02-05 15:57:37.050,0.0
-3460,-91,151,-226,164,-191,2024-02-05 15:57:37.112,0.0
-3460,-80,162,-177,233,-211,2024-02-05 15:57:37.171,0.0
-3456,-81,157,-202,251,-145,2024-02-05 15:57:37.229,0.0
-3466,-92,170,-221,236,-172,2024-02-05 15:57:37.288,0.0
-3457,-82,166,-173,238,-176,2024-02-05 15:57:37.338,0.0
-3436,-78,201,-190,158,-158,2024-02-05 15:57:37.394,0.0
-3451,-68,188,-190,244,-183,2024-02-05 15:57:37.443,0.0
-3433,-98,190,-165,245,-137,2024-02-05 15:57:37.507,0.0
-3475,-77,198,-173,415,-177,2024-02-05 15:57:37.564,0.0
-3438,-101,207,-101,253,-157,2024-02-05 15:57:37.621,0.0
-3467,-75,209,-79,311,-180,2024-02-05 15:57:37.681,0.0
-3484,-70,208,-156,366,-197,2024-02-05 15:57:37.730,
-3432,-78,198,-124,186,-206,2024-02-05 15:57:37.786,0.0
-3466,-71,166,-98,320,-170,2024-02-05 15:57:37.843,0.0
-3469,-55,130,-112,251,-168,2024-02-05 15:57:37.900,0.0
-3468,-86,110,-161,345,-184,2024-02-05 15:57:37.956,0.0
-3419,-102,81,-159,265,-227,2024-02-05 15:57:38.021,0.0
-3504,-100,102,-232,563,-312,2024-02-05 15:57:38.077,0.0
-3473,-118,159,-124,315,-192,2024-02-05 15:57:38.128,0.0
-3478,-97,77,158,214,-214,2024-02-05 15:57:38.183,0.0
-3436,-104,68,174,403,-416,2024-02-05 15:57:38.243,0.0
-3448,-64,37,233,-44,-396,2024-02-05 15:57:38.302,0.0
-3441,-85,13,205,-77,-389,2024-02-05 15:57:38.359,0.0
-3243,-131,20,205,505,-500,2024-02-05 15:57:38.415,0.0
-3374,-131,112,274,749,-498,2024-02-05 15:57:38.472,0.0
-3426,-181,113,302,660,-657,2024-02-05 15:57:38.528,0.0
-3415,-156,96,318,416,-594,2024-02-05 15:57:38.585,0.0
-3465,-150,5,469,658,-476,2024-02-05 15:57:38.637,0.0
-3350,-94,61,281,1132,-474,2024-02-05 15:57:38.694,0.0
-3348,-157,173,73,1225,-776,2024-02-05 15:57:38.751,0.0
-3680,-184,69,-33,1141,-435,2024-02-05 15:57:38.807,0.0
-3492,-187,126,224,268,-469,2024-02-05 15:57:38.864,
-3159,-161,-173,222,-324,-762,2024-02-05 15:57:38.923,0.0
-3004,-134,-168,-189,633,-1234,2024-02-05 15:57:38.988,0.0
-2250,-49,-360,409,-1465,-761,2024-02-05 15:57:39.037,0.0
-1328,-290,317,-1429,1457,-1439,2024-02-05 15:57:39.090,0.0
-3928,-707,1542,610,-1513,-605,2024-02-05 15:57:39.146,0.0
-9122,-289,421,-108,-5885,1436,2024-02-05 15:57:39.203,0.0
-10430,-1007,398,-1187,6663,662,2024-02-05 15:57:39.260,0.0
-7278,-284,-141,258,-1664,1276,2024-02-05 15:57:39.317,0.0
-631,-121,-806,-446,-11827,-603,2024-02-05 15:57:39.383,0.0
2330,-913,-752,-2335,3314,-420,2024-02-05 15:57:39.432,0.0
534,513,1178,-1573,1392,-2064,2024-02-05 15:57:39.489,0.0
-263,293,542,-685,-3237,-536,2024-02-05 15:57:39.548,0.0
1231,257,109,-2255,2327,450,2024-02-05 15:57:39.598,0.0
275,-832,726,1010,4248,-1620,2024-02-05 15:57:39.657,0.0
-15690,-325,4954,4064,-5111,7569,2024-02-05 15:57:39.713,0.0
-12124,157,996,-750,8639,-311,2024-02-05 15:57:39.774,0.0
-6815,-830,-172,1629,-2782,1924,2024-02-05 15:57:39.832,0.0
1502,17,-2565,851,-23546,-1397,2024-02-05 15:57:39.890,0.0
2489,-450,-243,349,8680,-246,2024-02-05 15:57:39.939,0.0
-151,181,971,1594,-3106,-519,2024-02-05 15:57:39.999,
393,-112,-218,137,-5678,-1058,2024-02-05 15:57:40.063,0.0
933,168,9,122,-355,-2140,2024-02-05 15:57:40.112,0.0
784,-190,219,151,-2664,-1921,2024-02-05 15:57:40.171,0.0
-10212,-1819,2476,6095,14800,5536,2024-02-05 15:57:40.220,0.0
-13505,161,1969,416,787,803,2024-02-05 15:57:40.286,0.0
-9467,494,245,-3245,113,2980,2024-02-05 15:57:40.342,0.0
-2627,-393,532,-171,-13065,-1166,2024-02-05 15:57:40.391,0.0
3615,-137,-2026,-2070,-925,-4342,2024-02-05 15:57:40.448,0.0
-491,309,1210,-1800,1933,-289,2024-02-05 15:57:40.506,0.0
-116,-143,1361,-2578,-7744,691,2024-02-05 15:57:40.563,0.0
946,-136,343,-2210,-632,13,2024-02-05 15:57:40.620,0.0
658,-64,-16,-2122,6219,-1144,2024-02-05 15:57:40.679,0.0
-1536,-870,-1022,1235,13212,-890,2024-02-05 15:57:40.736,0.0
-21902,122,-3329,-1168,-8898,2183,2024-02-05 15:57:40.792,0.0
-13155,-77,1893,469,10745,2174,2024-02-05 15:57:40.850,0.0
-2902,241,-988,2234,-10345,2349,2024-02-05 15:57:40.907,0.0
1069,-269,-1436,980,-16839,-4893,2024-02-05 15:57:40.966,0.0
2384,-265,-341,1422,8687,-1361,2024-02-05 15:57:41.015,0.0
-216,496,673,943,-869,-1266,2024-02-05 15:57:41.072,0.0
649,-58,338,-482,-6006,-344,2024-02-05 15:57:41.130,
1132,-102,253,-1122,775,-1562,2024-02-05 15:57:41.187,0.0
610,-414,874,1152,4510,-1345,2024-02-05 15:57:41.245,0.0
-18105,-1178,5651,5280,21278,4321,2024-02-05 15:57:41.301,0.0
-14731,-1099,2016,-2275,10036,1874,2024-02-05 15:57:41.362,0.0
-5453,-160,-1066,817,-17618,3423,2024-02-05 15:57:41.418,0.0
1934,-642,-2663,947,-7759,623,2024-02-05 15:57:41.475,0.0
3100,-398,520,-1149,3583,-4758,2024-02-05 15:57:41.527,0.0
-245,248,-197,-2035,-2006,-1129,2024-02-05 15:57:41.583,0.0
741,218,-819,-2750,-4125,1245,2024-02-05 15:57:41.640,0.0
998,-359,-182,-1683,6654,11,2024-02-05 15:57:41.697,0.0
440,-220,882,-678,-1267,-2087,2024-02-05 15:57:41.754,0.0
-2088,-741,-855,1540,12250,-2160,2024-02-05 15:57:41.815,0.0
-20949,-69,-874,668,-9790,-1147,2024-02-05 15:57:41.864,0.0
-12434,-495,1415,-1151,7867,3256,2024-02-05 15:57:41.921,0.0
-1701,233,-632,478,-12514,2602,2024-02-05 15:57:41.978,0.0
2841,-783,-1276,226,-790,-4563,2024-02-05 15:57:42.038,0.0
-268,304,2077,84,2808,-4260,2024-02-05 15:57:42.094,0.0
-15,-91,434,1140,-4580,-802,2024-02-05 15:57:42.151,0.0
976,96,-137,11,654,-447,2024-02-05 15:57:42.211,0.0
552,-12,355,-478,2989,-1410,2024-02-05 15:57:42.268,
266,-314,-581,939,1395,-2240,2024-02-05 15:57:42.317,0.0
-23583,1333,4563,-1623,16082,7371,2024-02-05 15:57:42.375,0.0
-14278,-1768,1970,-1031,10907,1111,2024-02-05 15:57:42.432,0.0
-4583,-257,-717,-1106,-11365,1549,2024-02-05 15:57:42.492,0.0
2331,414,-3239,-2002,-9457,2799,2024-02-05 15:57:42.548,0.0
1985,-439,837,-465,3902,-931,2024-02-05 15:57:42.605,0.0
-172,-89,799,-267,-4792,-1327,2024-02-05 15:57:42.664,0.0
664,287,-71,-778,-1033,-8,2024-02-05 15:57:42.713,0.0
914,241,132,-2140,5032,-1296,2024-02-05 15:57:42.769,0.0
698,-763,794,-2173,-2411,-2796,2024-02-05 15:57:42.826,0.0
-19735,-461,4831,3571,5685,7507,2024-02-05 15:57:42.883,0.0
-13099,-228,2120,-616,8313,-773,2024-02-05 15:57:42.940,0.0
-7258,-706,639,291,-3346,1106,2024-02-05 15:57:42.997,0.0
-404,-204,-224,85,-12304,1167,2024-02-05 15:57:43.062,0.0
2321,-361,-590,709,3875,142,2024-02-05 15:57:43.140,0.0
-128,263,1185,-648,-3031,-2008,2024-02-05 15:57:43.204,0.0
103,-80,781,55,-4449,-542,2024-02-05 15:57:43.278,0.0
1023,100,250,-1602,-300,-340,2024-02-05 15:57:43.285,0.0
900,-297,-456,-275,1488,19,2024-02-05 15:57:43.342,0.0
-14844,-551,5188,3102,32767,1109,2024-02-05 15:57:43.416,
-13748,-525,2381,-2417,3495,-1793,2024-02-05 15:57:43.465,0.0
-7661,-331,365,-2138,-10716,2067,2024-02-05 15:57:43.514,0.0
278,-332,-1142,-584,-14177,1143,2024-02-05 15:57:43.571,0.0
2451,-705,-383,631,3579,190,2024-02-05 15:57:43.628,0.0
-372,471,1264,-585,-1421,-548,2024-02-05 15:57:43.676,0.0
108,309,532,-1204,-3793,-286,2024-02-05 15:57:43.742,0.0
1171,8,249,-2029,1452,-1207,2024-02-05 15:57:43.825,0.0
975,-499,686,-1465,105,-1634,2024-02-05 15:57:43.882,0.0
-15382,-1222,5651,7081,6325,5075,2024-02-05 15:57:43.931,0.0
-15347,-62,2067,-617,3915,-1793,2024-02-05 15:57:43.964,0.0
-9301,-589,1085,-432,-392,368,2024-02-05 15:57:44.029,0.0
-725,245,-592,644,-13546,13,2024-02-05 15:57:44.078,0.0
2671,-496,-1203,-481,3571,37,2024-02-05 15:57:44.137,0.0
-203,641,1845,1280,-1780,-1526,2024-02-05 15:57:44.186,0.0
39,-150,817,521,-3817,-1247,2024-02-05 15:57:44.246,0.0
1004,255,73,-874,1765,-1361,2024-02-05 15:57:44.304,0.0
581,214,468,-1215,-1501,-1886,2024-02-05 15:57:44.360,0.0
-3798,-1217,-1340,2721,12431,-553,2024-02-05 15:57:44.424,0.0
-19318,-627,1747,-829,-11221,-1124,2024-02-05 15:57:44.489,0.0
-10042,-1139,1737,350,2087,3003,2024-02-05 15:57:44.546,
-2937,-108,243,2443,-3592,2486,2024-02-05 15:57:44.586,0.0
3158,16,-1650,156,1745,1619,2024-02-05 15:57:44.646,0.0
-273,-120,1241,-199,675,-2553,2024-02-05 15:57:44.695,0.0
150,227,805,453,-4886,-1690,2024-02-05 15:57:44.759,0.0
770,-230,252,-293,-953,-595,2024-02-05 15:57:44.842,0.0
1022,-302,150,-827,2781,-2113,2024-02-05 15:57:44.874,0.0
-3672,-395,-418,3182,5044,-2343,2024-02-05 15:57:44.966,0.0
-20086,-123,289,-1110,-9320,-1347,2024-02-05 15:57:44.982,0.0
-11998,-1378,1232,-2198,12616,4778,2024-02-05 15:57:45.042,0.0
-4501,-505,-4,980,-4909,3975,2024-02-05 15:57:45.099,0.0
2556,383,-2210,-694,-7462,185,2024-02-05 15:57:45.162,0.0
1500,-301,78,-1601,7549,-2255,2024-02-05 15:57:45.244,0.0
-54,-25,684,-1077,-2564,-1440,2024-02-05 15:57:45.309,0.0
448,91,262,-1315,-5212,216,2024-02-05 15:57:45.325,0.0
1191,-254,210,-1590,-2967,-62,2024-02-05 15:57:45.414,0.0
429,-785,922,1257,6335,-1316,2024-02-05 15:57:45.438,0.0
-14311,845,3878,-1895,-5757,1854,2024-02-05 15:57:45.518,0.0
-13508,-1056,2133,-3040,12414,1858,2024-02-05 15:57:45.587,0.0
-8636,-754,2122,-265,-2847,3627,2024-02-05 15:57:45.636,0.0
848,328,-1326,311,-15512,1925,2024-02-05 15:57:45.693,
2720,-348,-703,-1586,5780,862,2024-02-05 15:57:45.733,0.0
-396,49,1260,-678,-7765,-2729,2024-02-05 15:57:45.782,0.0
-264,170,935,-396,-5062,-774,2024-02-05 15:57:45.874,0.0
1021,268,-517,-1244,2353,-11,2024-02-05 15:57:45.890,0.0
630,-44,822,-1846,-41,-1109,2024-02-05 15:57:45.988,0.0
-3837,-1144,201,2921,9302,-2623,2024-02-05 15:57:46.005,0.0
-16596,-48,2563,1557,-10043,-1809,2024-02-05 15:57:46.070,0.0
-11886,-417,2573,-1123,4236,3330,2024-02-05 15:57:46.159,0.0
-4804,-714,268,350,-5951,3578,2024-02-05 15:57:46.199,0.0
929,485,-769,403,-4243,2895,2024-02-05 15:57:46.266,0.0
1300,-495,407,-1303,3973,-2471,2024-02-05 15:57:46.338,0.0
607,99,744,-1648,-2340,-2233,2024-02-05 15:57:46.354,0.0
81,142,179,-1499,-1847,260,2024-02-05 15:57:46.417,0.0
910,-697,296,-1065,1860,-682,2024-02-05 15:57:46.475,0.0
23,-723,625,1987,1902,-3655,2024-02-05 15:57:46.540,0.0
-12927,574,4111,1899,4220,-918,2024-02-05 15:57:46.613,0.0
-11201,-786,237,-1696,2138,704,2024-02-05 15:57:46.629,0.0
-8404,-104,1392,-826,2761,1571,2024-02-05 15:57:46.694,0.0
-1583,-327,939,254,-5438,3933,2024-02-05 15:57:46.759,0.0
2052,-485,-1140,882,1166,-162,2024-02-05 15:57:46.818,
122,-645,932,-1037,-6191,-1602,2024-02-05 15:57:46.883,0.0
648,568,176,-32,-3515,-516,2024-02-05 15:57:46.956,0.0
110,593,450,-2290,174,150,2024-02-05 15:57:47.021,0.0
631,-652,1014,-35,1647,-2053,2024-02-05 15:57:47.037,0.0
-10881,338,2641,4321,15334,2305,2024-02-05 15:57:47.102,0.0
-9962,-2318,4174,-3765,-4592,-3893,2024-02-05 15:57:47.159,0.0
-8258,-327,992,637,4325,-5820,2024-02-05 15:57:47.200,0.0
-2218,538,-1492,1233,-8596,267,2024-02-05 15:57:47.261,0.0
2026,587,-770,-576,-49,1910,2024-02-05 15:57:47.318,0.0
1264,-616,1232,-2268,-1457,-1248,2024-02-05 15:57:47.376,0.0
284,275,1034,612,1676,279,2024-02-05 15:57:47.433,0.0
1027,-402,-131,849,2841,-1232,2024-02-05 15:57:47.489,0.0
52,-1742,-126,3333,7683,-4707,2024-02-05 15:57:47.561,0.0
-14952,1754,815,-1462,-14593,-2361,2024-02-05 15:57:47.601,0.0
-5766,-1673,1407,-251,4414,1546,2024-02-05 15:57:47.658,0.0
-4212,363,494,-574,4433,2208,2024-02-05 15:57:47.715,0.0
-3784,-423,942,1038,292,372,2024-02-05 15:57:47.772,0.0
-1361,-181,689,-513,-1241,1003,2024-02-05 15:57:47.828,0.0
-2386,231,613,-1221,949,1990,2024-02-05 15:57:47.886,0.0
-3542,-211,165,-1112,70,2756,2024-02-05 15:57:47.943,
-3617,-532,767,-450,-2807,-317,2024-02-05 15:57:47.999,0.0
-3075,-335,710,531,-1698,-254,2024-02-05 15:57:48.049,0.0
-2635,-134,518,1609,339,281,2024-02-05 15:57:48.114,0.0
-3766,-49,598,1314,2637,385,2024-02-05 15:57:48.165,0.0
-3464,-26,608,765,-1665,205,2024-02-05 15:57:48.226,0.0
-3257,-128,531,493,2570,312,2024-02-05 15:57:48.275,0.0
-3844,1,889,375,208,-179,2024-02-05 15:57:48.334,0.0
-3470,28,1011,609,-148,88,2024-02-05 15:57:48.391,0.0
-3866,23,566,749,-2577,-223,2024-02-05 15:57:48.449,0.0
-3145,7,652,448,-1282,-257,2024-02-05 15:57:48.507,0.0
-3340,-49,944,457,-47,-718,2024-02-05 15:57:48.564,0.0
-3330,-57,728,301,-263,-866,2024-02-05 15:57:48.617,0.0
-3394,-334,886,1206,-154,-1636,2024-02-05 15:57:48.674,0.0
-3448,-354,595,2055,-1904,-2035,2024-02-05 15:57:48.734,0.0
-3196,-287,830,3049,-2793,-2800,2024-02-05 15:57:48.800,0.0
-2975,-409,1460,2102,2718,-3396,2024-02-05 15:57:48.848,0.0
-3715,-499,1533,649,1415,-2648,2024-02-05 15:57:48.905,0.0
-3194,-772,1339,248,631,-1484,2024-02-05 15:57:48.962,0.0
-3266,-418,1337,-147,2023,204,2024-02-05 15:57:49.018,0.0
-3241,-529,1262,-588,2972,1416,2024-02-05 15:57:49.076,
-3441,-944,1037,-1280,752,725,2024-02-05 15:57:49.133,0.0
-3767,-443,873,-1617,-735,-152,2024-02-05 15:57:49.190,0.0
-3469,-281,405,-2286,-2016,-2410,2024-02-05 15:57:49.247,0.0
-3705,-468,49,-3109,846,-446,2024-02-05 15:57:49.296,0.0
-3823,172,406,-3053,-1623,2348,2024-02-05 15:57:49.353,0.0
-3178,156,512,-3258,1934,1382,2024-02-05 15:57:49.412,0.0
-3710,-28,913,-2320,1521,1390,2024-02-05 15:57:49.469,0.0
-3235,63,841,-2423,1618,1274,2024-02-05 15:57:49.525,0.0
-3128,-114,1096,-1776,1483,-190,2024-02-05 15:57:49.583,0.0
-3715,-33,374,-2143,333,-1173,2024-02-05 15:57:49.640,0.0
-4097,-250,624,-2952,824,562,2024-02-05 15:57:49.696,0.0
-3058,47,623,-2616,1998,833,2024-02-05 15:57:49.752,0.0
-3845,-128,677,-2166,1712,365,2024-02-05 15:57:49.818,0.0
-3359,-276,435,-871,-570,925,2024-02-05 15:57:49.867,0.0
-3573,-239,396,-766,134,280,2024-02-05 15:57:49.924,0.0
-3396,-5,312,-719,-195,195,2024-02-05 15:57:49.977,0.0
-3557,2,189,-951,763,201,2024-02-05 15:57:50.040,0.0
-3374,-168,214,-584,482,204,2024-02-05 15:57:50.089,0.0
-3496,-130,348,-282,2407,838,2024-02-05 15:57:50.155,0.0
-3279,18,193,-215,828,804,2024-02-05 15:57:50.205,
-3474,-95,484,-604,2443,686,2024-02-05 15:57:50.262,0.0
-3452,-122,600,-921,2757,465,2024-02-05 15:57:50.326,0.0
-3560,-155,495,-902,1318,-173,2024-02-05 15:57:50.378,0.0
-3487,-61,449,-986,779,-278,2024-02-05 15:57:50.435,0.0
-3489,-98,347,-919,1050,-456,2024-02-05 15:57:50.491,0.0
-3485,-119,318,-417,913,-322,2024-02-05 15:57:50.548,0.0
-3481,-54,255,-199,234,-347,2024-02-05 15:57:50.605,0.0
-3445,22,187,-330,156,-316,2024-02-05 15:57:50.661,0.0
-3424,-53,143,-449,96,-211,2024-02-05 15:57:50.717,0.0
-3452,-8,214,-518,-97,-313,2024-02-05 15:57:50.776,0.0
-3438,-75,127,-284,313,-322,2024-02-05 15:57:50.833,0.0
-3452,-50,159,-145,195,-198,2024-02-05 15:57:50.883,0.0
-3510,-16,145,-339,273,-172,2024-02-05 15:57:50.940,0.0
-3442,-70,180,-323,158,-159,2024-02-05 15:57:50.997,0.0
-3432,-101,149,-341,172,-224,2024-02-05 15:57:51.063,0.0
-3454,-63,184,-358,425,-229,2024-02-05 15:57:51.120,0.0
-3489,-73,147,-408,187,-192,2024-02-05 15:57:51.169,0.0
-3416,-77,149,-455,146,-222,2024-02-05 15:57:51.227,0.0
-3443,-100,165,-424,62,-148,2024-02-05 15:57:51.284,0.0
-3450,-56,185,-423,263,-190,2024-02-05 15:57:51.346,
-3452,-81,181,-393,115,-191,2024-02-05 15:57:51.394,0.0
-3470,-60,202,-366,269,-206,2024-02-05 15:57:51.459,0.0
-3426,-51,228,-331,239,-235,2024-02-05 15:57:51.508,0.0
-3466,-66,211,-324,262,-216,2024-02-05 15:57:51.566,0.0
-3431,-66,179,-196,314,-207,2024-02-05 15:57:51.631,0.0
-3468,-60,173,-82,377,-171,2024-02-05 15:57:51.679,0.0
-3447,0,206,-65,206,-126,2024-02-05 15:57:51.739,0.0
-3441,-31,170,-143,386,-101,2024-02-05 15:57:51.797,0.0
-3455,-16,155,-130,189,-101,2024-02-05 15:57:51.853,0.0
-3439,-18,168,-179,244,-161,2024-02-05 15:57:51.910,0.0
-3437,-57,166,-160,266,-150,2024-02-05 15:57:51.963,0.0
-3472,-32,178,-220,229,-167,2024-02-05 15:57:52.021,0.0
-3443,-51,217,-173,269,-163,2024-02-05 15:57:52.078,0.0
-3450,-15,158,-200,160,-197,2024-02-05 15:57:52.136,0.0
-3438,-55,183,-158,322,-220,2024-02-05 15:57:52.193,0.0
-3465,-22,157,-94,359,-160,2024-02-05 15:57:52.242,0.0
-3479,-34,154,-126,155,-203,2024-02-05 15:57:52.300,0.0
-3451,-32,150,-271,314,-171,2024-02-05 15:57:52.359,0.0
-3433,-65,163,-222,272,-156,2024-02-05 15:57:52.416,0.0
-3445,-23,173,-174,268,-216,2024-02-05 15:57:52.473,
