acceleration_x,acceleration_y,acceleration_z,gyroscope_x,gyroscope_y,gyroscope_z,timestamp,label
-13888,552,312,51,210,-158,2024-01-24 10:50:47,0.0
-13600,580,212,-11,210,-174,2024-01-24 10:50:47,0.0
-13688,524,392,-122,296,-240,2024-01-24 10:50:47,0.0
-13524,272,220,-184,341,-235,2024-01-24 10:50:47,0.0
-13756,128,176,-235,479,-205,2024-01-24 10:50:47,0.0
-13856,44,368,-317,375,-255,2024-01-24 10:50:47,0.0
-13960,8,512,-354,128,-253,2024-01-24 10:50:47,0.0
-13904,24,332,-397,12,-225,2024-01-24 10:50:47,0.0
-13780,64,624,-321,-23,-198,2024-01-24 10:50:47,0.0
-13668,64,448,-189,39,-149,2024-01-24 10:50:47,0.0
-13620,36,540,-69,123,-162,2024-01-24 10:50:47,0.0
-13760,40,672,-23,137,-151,2024-01-24 10:50:47,0.0
-13960,-84,476,-9,128,-174,2024-01-24 10:50:47,0.0
-13924,112,504,-26,14,-223,2024-01-24 10:50:47,0.0
-13724,140,512,-114,39,-193,2024-01-24 10:50:47,0.0
-13836,-28,428,-154,162,-168,2024-01-24 10:50:47,0.0
-13780,104,632,-159,122,-174,2024-01-24 10:50:47,0.0
-13816,108,620,-101,98,-179,2024-01-24 10:50:47,0.0
-13784,52,572,-84,71,-177,2024-01-24 10:50:47,0.0
-13828,36,404,-70,74,-184,2024-01-24 10:50:47,0.0
-13764,-4,404,-111,107,-205,2024-01-24 10:50:47,0.0
-13864,-120,476,-170,161,-192,2024-01-24 10:50:47,0.0
-13884,-52,684,-179,237,-176,2024-01-24 10:50:47,0.0
-13824,-64,748,-174,198,-181,2024-01-24 10:50:47,0.0
-13768,68,580,-141,144,-193,2024-01-24 10:50:47,0.0
-13860,100,708,-112,120,-176,2024-01-24 10:50:47,0.0
-13744,168,564,-80,110,-189,2024-01-24 10:50:47,0.0
-13700,-12,692,-88,214,-179,2024-01-24 10:50:47,0.0
-13712,4,548,-53,295,-191,2024-01-24 10:50:47,0.0
-13800,-36,596,-53,312,-206,2024-01-24 10:50:47,0.0
-13956,40,600,-41,379,-171,2024-01-24 10:50:47,0.0
-13868,120,560,-59,291,-155,2024-01-24 10:50:47,0.0
-13708,180,588,-67,294,-175,2024-01-24 10:50:47,0.0
-13776,80,472,-100,302,-138,2024-01-24 10:50:47,0.0
-13856,196,484,-200,263,-173,2024-01-24 10:50:47,0.0
-13808,28,384,-191,280,-164,2024-01-24 10:50:47,0.0
-13848,24,564,-266,288,-172,2024-01-24 10:50:47,0.0
-13764,120,332,-303,335,-176,2024-01-24 10:50:47,0.0
-13696,116,696,-308,419,-143,2024-01-24 10:50:47,0.0
-13808,0,604,-306,426,-185,2024-01-24 10:50:47,0.0
-13928,-260,592,-280,369,-212,2024-01-24 10:50:47,0.0
-13904,-212,504,-253,398,-191,2024-01-24 10:50:47,0.0
-13816,-96,600,-226,435,-197,2024-01-24 10:50:47,0.0
-13920,-88,448,-156,431,-183,2024-01-24 10:50:48,0.0
-13868,-8,588,-122,463,-170,2024-01-24 10:50:48,0.0
-13744,-120,528,-46,383,-188,2024-01-24 10:50:48,0.0
-13652,-116,544,30,463,-188,2024-01-24 10:50:48,0.0
-13968,-116,340,146,632,-94,2024-01-24 10:50:48,0.0
-14188,-224,-80,125,215,-117,2024-01-24 10:50:48,0.0
-14012,-116,-180,0,-189,-192,2024-01-24 10:50:48,0.0
-13828,-144,188,1,-303,-221,2024-01-24 10:50:48,0.0
-13464,-36,-268,-114,-110,-250,2024-01-24 10:50:48,0.0
-13436,232,-256,-74,370,-226,2024-01-24 10:50:48,0.0
-13528,172,-716,-93,759,-273,2024-01-24 10:50:48,0.0
-13476,316,-668,-162,1031,-264,2024-01-24 10:50:48,0.0
-13272,252,-940,-287,1327,-259,2024-01-24 10:50:48,0.0
-13400,-140,-908,-526,1543,-308,2024-01-24 10:50:48,0.0
-13400,-212,-928,-548,1679,-389,2024-01-24 10:50:48,0.0
-13676,156,-1404,-635,1843,-377,2024-01-24 10:50:48,0.0
-13504,236,-1652,-611,2133,-344,2024-01-24 10:50:48,0.0
-13324,168,-1920,-390,2543,-257,2024-01-24 10:50:48,0.0
-12972,308,-2440,-116,2974,-273,2024-01-24 10:50:48,0.0
-12544,208,-2156,318,3531,-323,2024-01-24 10:50:48,0.0
-12204,-476,-2012,999,4076,-228,2024-01-24 10:50:48,0.0
-12368,-1064,-2700,1364,4355,28,2024-01-24 10:50:48,0.0
-12320,-1224,-3708,1495,4391,261,2024-01-24 10:50:48,0.0
-11820,-860,-3640,1518,4755,335,2024-01-24 10:50:48,0.0
-12324,-160,-2848,1239,4811,362,2024-01-24 10:50:48,0.0
-12636,184,-2532,995,4356,476,2024-01-24 10:50:48,0.0
-12280,592,-3896,911,3409,453,2024-01-24 10:50:48,0.0
-11728,120,-3588,455,2756,313,2024-01-24 10:50:48,0.0
-9904,136,-3084,-223,2531,551,2024-01-24 10:50:48,0.0
-8724,704,-2984,-210,3831,884,2024-01-24 10:50:48,0.0
-7848,196,-3396,-179,5946,776,2024-01-24 10:50:48,0.0
-9720,288,-2488,-51,7978,668,2024-01-24 10:50:48,0.0
-11492,-272,-1388,306,8687,369,2024-01-24 10:50:48,0.0
-12644,-472,-988,852,7904,-415,2024-01-24 10:50:48,0.0
-13696,108,-1840,853,5831,-1806,2024-01-24 10:50:48,0.0
-12844,-584,-3628,507,4791,-1356,2024-01-24 10:50:48,0.0
-11316,-292,-3608,22,5623,-1013,2024-01-24 10:50:48,0.0
-12416,732,-1068,-3,5786,-876,2024-01-24 10:50:48,0.0
-16300,1192,-1184,-102,4515,-181,2024-01-24 10:50:48,0.0
-16516,500,-1712,-447,603,599,2024-01-24 10:50:48,0.0
-12852,-800,-1240,-428,-2676,516,2024-01-24 10:50:48,0.0
-11796,-928,100,-3,-3652,-307,2024-01-24 10:50:48,0.0
-12508,-684,-204,903,-3873,-1173,2024-01-24 10:50:48,0.0
-12824,-840,-1292,1738,-5308,-1638,2024-01-24 10:50:48,0.0
-12584,-552,-2092,1460,-6300,-1585,2024-01-24 10:50:48,0.0
-12208,764,-2556,606,-5627,-1326,2024-01-24 10:50:48,0.0
-11552,608,-1652,100,-5054,-1467,2024-01-24 10:50:48,0.0
-12164,560,-1116,-33,-4632,-1934,2024-01-24 10:50:48,0.0
-12648,108,8,188,-4214,-1847,2024-01-24 10:50:48,0.0
-13508,392,-488,463,-3259,-1009,2024-01-24 10:50:48,0.0
-14052,-204,-876,473,-2179,187,2024-01-24 10:50:48,0.0
-13768,-424,-1316,109,-2015,1268,2024-01-24 10:50:48,0.0
-12728,-480,-1180,-6,-1928,1036,2024-01-24 10:50:48,0.0
-12592,-1000,-568,222,-2701,-90,2024-01-24 10:50:48,0.0
-13660,16,-16,329,-4032,-530,2024-01-24 10:50:48,0.0
-13428,448,-552,284,-3938,-297,2024-01-24 10:50:48,0.0
-12592,112,-1060,86,-2469,256,2024-01-24 10:50:48,
-11008,-1552,-664,-479,-2198,62,2024-01-24 10:50:48,0.0
-11428,-996,-16,-727,-1107,-474,2024-01-24 10:50:48,0.0
-13324,-200,356,-655,-1555,-706,2024-01-24 10:50:49,0.0
-13880,288,-404,-889,-2204,-251,2024-01-24 10:50:49,0.0
-14540,8,-1292,-1409,-2133,379,2024-01-24 10:50:49,0.0
-14840,-772,-844,-1849,-3029,471,2024-01-24 10:50:49,0.0
-13844,-392,-236,-2410,-4622,-310,2024-01-24 10:50:49,0.0
-13008,-108,376,-2227,-4772,-1343,2024-01-24 10:50:49,0.0
-15060,152,760,-1824,-5269,-1206,2024-01-24 10:50:49,0.0
-15984,92,504,-1491,-6918,-181,2024-01-24 10:50:49,0.0
-14940,-900,180,-1633,-8335,-197,2024-01-24 10:50:49,0.0
-15984,624,340,-1739,-8198,-494,2024-01-24 10:50:49,0.0
-16716,324,688,-1649,-8332,-93,2024-01-24 10:50:49,0.0
-16028,-412,952,-1470,-8782,124,2024-01-24 10:50:49,0.0
-14904,-304,2016,-1231,-9149,-136,2024-01-24 10:50:49,0.0
-15968,644,2292,-1147,-8781,-680,2024-01-24 10:50:49,0.0
-18496,656,2824,-1181,-7758,-417,2024-01-24 10:50:49,0.0
-21216,-1440,2816,-935,-7857,-60,2024-01-24 10:50:49,0.0
-24388,704,3164,-523,-7297,432,2024-01-24 10:50:49,0.0
-24992,3188,3916,-182,-7748,1629,2024-01-24 10:50:49,0.0
-20660,736,4272,-97,-8456,1934,2024-01-24 10:50:49,0.0
-16884,-340,5644,-20,-6705,2286,2024-01-24 10:50:49,0.0
-13300,80,6592,43,-3110,2236,2024-01-24 10:50:49,0.0
-10220,-72,6204,-702,-1132,644,2024-01-24 10:50:49,0.0
-10276,-524,6080,-1307,-486,-33,2024-01-24 10:50:49,0.0
-10720,-588,6536,-1745,-1281,-376,2024-01-24 10:50:49,0.0
-10104,-220,6536,-2060,-2111,-93,2024-01-24 10:50:49,0.0
-10688,440,6640,-2130,-1967,-200,2024-01-24 10:50:49,0.0
-11776,180,5644,-1940,-2443,-935,2024-01-24 10:50:49,0.0
-13252,-684,4296,-1668,-3218,-1566,2024-01-24 10:50:49,0.0
-14724,-520,4208,-1301,-3867,-1574,2024-01-24 10:50:49,0.0
-14752,8,4368,-1007,-4775,-1381,2024-01-24 10:50:49,0.0
-14356,468,4304,-715,-3812,-882,2024-01-24 10:50:49,0.0
-14100,672,4368,-619,-2167,-581,2024-01-24 10:50:49,0.0
-14248,76,4656,-543,-1001,-291,2024-01-24 10:50:49,0.0
-14572,-132,5124,-597,-635,59,2024-01-24 10:50:49,0.0
-14644,-436,5096,-650,-1306,330,2024-01-24 10:50:49,0.0
-14532,-620,5448,-526,-2566,558,2024-01-24 10:50:49,0.0
-13528,-652,6008,-476,-3302,605,2024-01-24 10:50:49,0.0
-13112,-1068,6120,-591,-3090,540,2024-01-24 10:50:49,0.0
-12804,-1492,6572,-770,-2530,289,2024-01-24 10:50:49,0.0
-12728,-1492,7164,-697,-2390,3,2024-01-24 10:50:49,0.0
-12588,-1544,7288,-390,-2375,-331,2024-01-24 10:50:49,0.0
-12636,-1472,7392,-116,-2170,-756,2024-01-24 10:50:49,0.0
-13140,-868,7464,254,-1899,-882,2024-01-24 10:50:49,0.0
-13492,-488,7584,483,-1934,-553,2024-01-24 10:50:49,0.0
-13332,-272,7100,524,-1793,-269,2024-01-24 10:50:49,0.0
-13120,-12,7004,469,-1596,-180,2024-01-24 10:50:49,0.0
-12984,132,7188,460,-1424,-148,2024-01-24 10:50:49,0.0
-12524,152,7204,362,-1052,-251,2024-01-24 10:50:49,0.0
-12688,-120,6836,317,-380,-393,2024-01-24 10:50:49,0.0
-13208,216,6716,297,-11,-366,2024-01-24 10:50:49,0.0
-13148,200,6652,370,24,-326,2024-01-24 10:50:49,0.0
-13304,224,6448,426,38,-315,2024-01-24 10:50:49,0.0
-13196,120,6404,425,-254,-206,2024-01-24 10:50:49,0.0
-13088,180,6392,336,-470,-153,2024-01-24 10:50:49,0.0
-13096,68,6436,249,-401,-157,2024-01-24 10:50:49,0.0
-13136,-160,6496,172,-323,-157,2024-01-24 10:50:49,0.0
-13120,-128,6428,103,-325,-197,2024-01-24 10:50:49,0.0
-12988,-136,6576,65,-311,-300,2024-01-24 10:50:49,0.0
-12948,-44,6528,12,-447,-443,2024-01-24 10:50:49,0.0
-13152,-68,6676,4,-724,-483,2024-01-24 10:50:50,0.0
-13240,-12,6704,-99,-970,-489,2024-01-24 10:50:50,0.0
-13208,-48,6760,-178,-1065,-445,2024-01-24 10:50:50,0.0
-13276,28,6824,-269,-1340,-411,2024-01-24 10:50:50,0.0
-13172,80,6724,-418,-1603,-445,2024-01-24 10:50:50,0.0
-13012,68,6896,-513,-1873,-539,2024-01-24 10:50:50,0.0
-12924,12,6920,-467,-1934,-617,2024-01-24 10:50:50,0.0
-12844,-232,7160,-442,-1813,-651,2024-01-24 10:50:50,0.0
-13032,-312,7300,-309,-1533,-540,2024-01-24 10:50:50,0.0
-13028,-464,7752,-292,-1212,-336,2024-01-24 10:50:50,0.0
-12824,-408,7704,-281,-938,-217,2024-01-24 10:50:50,0.0
-12660,-464,7664,-277,-754,-162,2024-01-24 10:50:50,0.0
-12524,-616,7864,-249,-469,-195,2024-01-24 10:50:50,0.0
-12520,-520,7772,-254,-144,-309,2024-01-24 10:50:50,0.0
-12788,-532,7752,-254,94,-303,2024-01-24 10:50:50,0.0
-12880,-436,7820,-233,110,-264,2024-01-24 10:50:50,0.0
-12880,-428,7732,-237,70,-188,2024-01-24 10:50:50,0.0
-12888,-444,7720,-194,111,-150,2024-01-24 10:50:50,0.0
-12816,-392,7628,-185,148,-135,2024-01-24 10:50:50,0.0
-12852,-352,7444,-174,242,-175,2024-01-24 10:50:50,0.0
-12880,-212,7460,-154,204,-175,2024-01-24 10:50:50,0.0
-12784,-268,7400,-123,198,-171,2024-01-24 10:50:50,0.0
-12928,-184,7396,-126,213,-143,2024-01-24 10:50:50,0.0
-12928,-336,7296,-113,269,-147,2024-01-24 10:50:50,0.0
-12936,-208,7512,-125,245,-169,2024-01-24 10:50:50,0.0
-12936,-228,7488,-120,183,-159,2024-01-24 10:50:50,0.0
-12752,-236,7596,-100,112,-156,2024-01-24 10:50:50,0.0
-12788,-280,7808,-137,79,-171,2024-01-24 10:50:50,0.0
-12676,-348,7956,-186,312,-202,2024-01-24 10:50:50,0.0
-12920,-280,8612,-147,656,-211,2024-01-24 10:50:50,0.0
-13348,-352,8520,-90,508,-280,2024-01-24 10:50:50,0.0
-13236,-344,7240,-173,55,-278,2024-01-24 10:50:50,0.0
-12812,-196,6556,-175,380,-207,2024-01-24 10:50:50,0.0
-12716,-264,6712,-212,400,-199,2024-01-24 10:50:50,0.0
-12672,-300,7216,-253,114,-199,2024-01-24 10:50:50,0.0
-12772,-372,7220,-267,-86,-313,2024-01-24 10:50:50,0.0
-12724,-364,7300,-266,-112,-318,2024-01-24 10:50:50,0.0
-12688,-256,7236,-265,-118,-258,2024-01-24 10:50:50,0.0
-12888,-352,7468,-226,-82,-194,2024-01-24 10:50:50,
-12892,-348,7536,-220,17,-208,2024-01-24 10:50:50,0.0
-12776,-340,8168,-233,150,-217,2024-01-24 10:50:50,0.0
-12852,-288,7892,-266,124,-190,2024-01-24 10:50:50,0.0
-12572,-424,7504,-252,71,-246,2024-01-24 10:50:50,0.0
-12648,-448,7636,-245,341,-299,2024-01-24 10:50:50,0.0
-12784,-516,7636,-234,516,-367,2024-01-24 10:50:50,0.0
-12836,-320,7836,-229,495,-417,2024-01-24 10:50:50,0.0
-12988,-256,7972,-208,382,-450,2024-01-24 10:50:50,0.0
-13036,-220,8080,-198,232,-396,2024-01-24 10:50:50,0.0
-13012,-444,8108,-169,135,-368,2024-01-24 10:50:50,0.0
-13056,-400,7512,-275,175,-319,2024-01-24 10:50:50,0.0
-12928,-372,7196,-222,162,-316,2024-01-24 10:50:50,0.0
-12748,-336,6876,-178,-97,-295,2024-01-24 10:50:50,0.0
-12896,-412,6992,-229,-221,-313,2024-01-24 10:50:50,0.0
-12932,-444,7112,-234,-284,-277,2024-01-24 10:50:50,0.0
-12904,-264,7204,-232,-255,-198,2024-01-24 10:50:50,0.0
-12600,-412,7752,-208,-107,-184,2024-01-24 10:50:50,0.0
-12868,-480,8072,-184,-26,-220,2024-01-24 10:50:50,0.0
-12652,-520,8084,-185,136,-248,2024-01-24 10:50:50,0.0
-12828,-544,7588,-162,330,-275,2024-01-24 10:50:51,0.0
-12800,-420,7324,-186,414,-250,2024-01-24 10:50:51,0.0
-12772,-336,7452,-221,410,-226,2024-01-24 10:50:51,0.0
-12972,-296,7456,-194,288,-229,2024-01-24 10:50:51,0.0
-12928,-432,7444,-224,195,-208,2024-01-24 10:50:51,0.0
-12716,-340,7580,-185,164,-150,2024-01-24 10:50:51,0.0
-12868,-388,7716,-186,211,-154,2024-01-24 10:50:51,0.0
-12828,-544,8104,-207,255,-173,2024-01-24 10:50:51,0.0
-12948,-516,8276,-167,296,-221,2024-01-24 10:50:51,0.0
-12788,-604,7680,-100,358,-222,2024-01-24 10:50:51,0.0
-12836,-388,7096,-115,296,-221,2024-01-24 10:50:51,0.0
-12796,-356,6928,-104,167,-272,2024-01-24 10:50:51,0.0
-12908,-392,7188,-163,56,-219,2024-01-24 10:50:51,0.0
-12824,-436,7412,-161,154,-229,2024-01-24 10:50:51,0.0
-12832,-404,7432,-137,264,-216,2024-01-24 10:50:51,0.0
-12824,-396,7444,-180,241,-233,2024-01-24 10:50:51,0.0
-12808,-416,7572,-206,149,-199,2024-01-24 10:50:51,0.0
-12812,-372,8112,-141,151,-215,2024-01-24 10:50:51,0.0
-12828,-452,8044,-158,278,-183,2024-01-24 10:50:51,0.0
-12760,-608,7768,-198,473,-197,2024-01-24 10:50:51,0.0
-12992,-480,7368,-145,426,-190,2024-01-24 10:50:51,0.0
-12908,-380,7148,-127,163,-211,2024-01-24 10:50:51,0.0
-12992,-328,7196,-146,-19,-204,2024-01-24 10:50:51,0.0
-12836,-328,7220,-158,-100,-186,2024-01-24 10:50:51,0.0
-12972,-244,7392,-194,-57,-140,2024-01-24 10:50:51,0.0
-12816,-308,7340,-240,-94,-104,2024-01-24 10:50:51,0.0
-12920,-280,7544,-186,-312,-76,2024-01-24 10:50:51,0.0
-12836,-420,7504,-134,-500,-48,2024-01-24 10:50:51,0.0
-12696,-484,7740,-238,-476,-36,2024-01-24 10:50:51,0.0
-12628,-656,7912,-301,-275,-147,2024-01-24 10:50:51,0.0
-12564,-500,8044,-377,-48,-277,2024-01-24 10:50:51,0.0
-12716,-560,8124,-351,109,-438,2024-01-24 10:50:51,0.0
-12716,-580,8116,-275,78,-444,2024-01-24 10:50:51,0.0
-12796,-484,8020,-223,45,-344,2024-01-24 10:50:51,0.0
-12836,-264,7852,-160,0,-293,2024-01-24 10:50:51,0.0
-12928,-212,7912,-189,-127,-220,2024-01-24 10:50:51,0.0
-12888,-220,7748,-168,-195,-176,2024-01-24 10:50:51,0.0
-12840,-292,7680,-143,-116,-160,2024-01-24 10:50:51,0.0
-12704,-400,7664,-192,-100,-210,2024-01-24 10:50:51,0.0
-12784,-448,7748,-216,-120,-283,2024-01-24 10:50:51,0.0
-12744,-484,7652,-260,-79,-302,2024-01-24 10:50:51,0.0
-12868,-564,7488,-310,-20,-326,2024-01-24 10:50:51,0.0
-12904,-536,7728,-307,31,-270,2024-01-24 10:50:51,0.0
-12920,-576,7684,-290,-4,-202,2024-01-24 10:50:51,0.0
-12844,-492,7780,-234,-103,-192,2024-01-24 10:50:51,0.0
-12816,-504,7872,-216,-149,-184,2024-01-24 10:50:51,0.0
-12708,-508,7812,-218,-129,-167,2024-01-24 10:50:51,0.0
-12684,-476,7884,-210,-88,-209,2024-01-24 10:50:51,0.0
-12608,-552,8012,-209,-22,-196,2024-01-24 10:50:51,0.0
-12624,-540,8152,-166,50,-265,2024-01-24 10:50:51,0.0
-12580,-584,8256,-131,160,-214,2024-01-24 10:50:51,0.0
-12808,-528,8156,-116,250,-98,2024-01-24 10:50:51,0.0
-12676,-576,8020,-99,340,-39,2024-01-24 10:50:51,0.0
-12636,-540,7952,-112,410,-70,2024-01-24 10:50:51,0.0
-12708,-548,8012,-96,492,-129,2024-01-24 10:50:51,0.0
-12732,-432,7968,-96,518,-237,2024-01-24 10:50:51,0.0
-12712,-456,7724,-87,554,-214,2024-01-24 10:50:51,0.0
-12684,-416,7764,-143,524,-132,2024-01-24 10:50:51,0.0
-12896,-500,7748,-144,435,-73,2024-01-24 10:50:51,0.0
-12816,-420,7692,-156,315,-62,2024-01-24 10:50:52,0.0
-12756,-444,7816,-177,315,-67,2024-01-24 10:50:52,0.0
-12664,-456,7960,-119,307,-127,2024-01-24 10:50:52,0.0
-12696,-472,7716,-95,257,-149,2024-01-24 10:50:52,0.0
-12908,-456,7692,-107,67,-214,2024-01-24 10:50:52,0.0
-13304,-536,7728,-101,-595,-296,2024-01-24 10:50:52,0.0
-13404,-588,7372,-91,-1883,-364,2024-01-24 10:50:52,0.0
-13132,-384,7188,-74,-3189,-491,2024-01-24 10:50:52,0.0
-12548,-236,8020,-26,-3532,-453,2024-01-24 10:50:52,0.0
-12348,-208,8364,-12,-2953,-439,2024-01-24 10:50:52,0.0
-12164,-448,8744,-134,-2070,-419,2024-01-24 10:50:52,0.0
-12200,-408,8744,-226,-1403,-390,2024-01-24 10:50:52,0.0
-12136,-440,8696,-238,-819,-377,2024-01-24 10:50:52,0.0
-12136,-516,8512,-280,-275,-413,2024-01-24 10:50:52,0.0
-12176,-504,8672,-374,141,-403,2024-01-24 10:50:52,0.0
-12408,-448,8688,-327,479,-368,2024-01-24 10:50:52,0.0
-12508,-496,8620,-335,632,-297,2024-01-24 10:50:52,0.0
-12688,-648,8452,-376,553,-242,2024-01-24 10:50:52,0.0
-12692,-668,8428,-277,306,-174,2024-01-24 10:50:52,0.0
-12536,-744,8248,-221,214,-156,2024-01-24 10:50:52,0.0
-12540,-660,8208,-229,221,-165,2024-01-24 10:50:52,0.0
-12504,-676,8284,-196,234,-204,2024-01-24 10:50:52,
-12652,-736,8396,-180,303,-223,2024-01-24 10:50:52,0.0
-12528,-744,8468,-173,331,-206,2024-01-24 10:50:52,0.0
-12500,-712,8324,-143,352,-203,2024-01-24 10:50:52,0.0
-12512,-592,8436,-93,323,-138,2024-01-24 10:50:52,0.0
-12452,-668,8492,-137,332,-137,2024-01-24 10:50:52,0.0
-12408,-576,8452,-104,398,-99,2024-01-24 10:50:52,0.0
-12516,-564,8480,-140,453,-140,2024-01-24 10:50:52,0.0
-12424,-532,8620,-221,515,-176,2024-01-24 10:50:52,0.0
-12420,-360,8332,-204,507,-206,2024-01-24 10:50:52,0.0
-12516,-224,8264,-191,586,-230,2024-01-24 10:50:52,0.0
-12592,-332,8284,-175,673,-212,2024-01-24 10:50:52,0.0
-12564,-424,8272,-178,659,-171,2024-01-24 10:50:52,0.0
-12660,-592,8372,-205,599,-140,2024-01-24 10:50:52,0.0
-12640,-456,8488,-158,500,-137,2024-01-24 10:50:52,0.0
-12656,-688,8212,-177,417,-127,2024-01-24 10:50:52,0.0
-12560,-740,8276,-234,369,-131,2024-01-24 10:50:52,0.0
-12476,-624,8380,-193,422,-147,2024-01-24 10:50:52,0.0
-12580,-616,8324,-197,410,-169,2024-01-24 10:50:52,0.0
-12488,-600,8164,-207,476,-177,2024-01-24 10:50:52,0.0
-12556,-624,8148,-179,512,-186,2024-01-24 10:50:52,0.0
-12704,-532,8304,-209,511,-164,2024-01-24 10:50:52,0.0
-12580,-532,8320,-163,436,-152,2024-01-24 10:50:52,0.0
-12708,-616,8180,-114,412,-147,2024-01-24 10:50:52,0.0
-12596,-496,7944,-119,394,-165,2024-01-24 10:50:52,0.0
-12532,-592,8176,-117,308,-154,2024-01-24 10:50:52,0.0
-12564,-500,8168,-138,247,-140,2024-01-24 10:50:52,0.0
-12564,-540,8176,-143,212,-143,2024-01-24 10:50:52,0.0
-12512,-524,8376,-136,193,-140,2024-01-24 10:50:52,0.0
-12524,-572,8248,-121,207,-155,2024-01-24 10:50:52,0.0
-12632,-416,8288,-129,234,-147,2024-01-24 10:50:52,0.0
-12556,-500,8292,-166,189,-158,2024-01-24 10:50:52,0.0
-12584,-512,8292,-155,188,-176,2024-01-24 10:50:52,0.0
-12664,-528,8204,-161,173,-182,2024-01-24 10:50:52,0.0
-12536,-472,8232,-159,155,-150,2024-01-24 10:50:52,0.0
-12700,-592,8068,-142,120,-103,2024-01-24 10:50:52,0.0
-12620,-508,8144,-199,12,-125,2024-01-24 10:50:52,0.0
-12608,-556,8208,-207,-55,-168,2024-01-24 10:50:53,0.0
-12488,-552,8184,-208,-85,-229,2024-01-24 10:50:53,0.0
-12508,-380,8216,-243,-14,-257,2024-01-24 10:50:53,0.0
-12576,-396,8348,-258,87,-264,2024-01-24 10:50:53,0.0
-12572,-464,8296,-218,88,-203,2024-01-24 10:50:53,0.0
-12564,-484,8292,-238,67,-194,2024-01-24 10:50:53,0.0
-12480,-548,8508,-213,65,-200,2024-01-24 10:50:53,0.0
-12476,-532,8160,-205,90,-217,2024-01-24 10:50:53,0.0
-12628,-592,8304,-196,132,-247,2024-01-24 10:50:53,0.0
-12520,-536,8228,-207,230,-226,2024-01-24 10:50:53,0.0
-12564,-604,8248,-182,214,-205,2024-01-24 10:50:53,0.0
-12708,-640,8192,-182,217,-198,2024-01-24 10:50:53,0.0
-12688,-636,8232,-197,164,-186,2024-01-24 10:50:53,0.0
-12580,-576,8404,-139,119,-192,2024-01-24 10:50:53,0.0
-12540,-612,8316,-120,107,-213,2024-01-24 10:50:53,0.0
-12532,-572,8368,-146,115,-177,2024-01-24 10:50:53,0.0
-12520,-556,8308,-140,123,-152,2024-01-24 10:50:53,0.0
-12636,-584,8200,-172,53,-152,2024-01-24 10:50:53,0.0
-12412,-480,8392,-193,34,-125,2024-01-24 10:50:53,0.0
-12480,-544,8392,-169,42,-139,2024-01-24 10:50:53,0.0
-12568,-472,8380,-184,45,-129,2024-01-24 10:50:53,0.0
-12556,-512,8320,-177,57,-142,2024-01-24 10:50:53,0.0
-12508,-460,8320,-170,45,-147,2024-01-24 10:50:53,0.0
-12464,-432,8392,-178,102,-178,2024-01-24 10:50:53,0.0
-12564,-516,8384,-182,114,-188,2024-01-24 10:50:53,0.0
-12692,-532,8216,-182,72,-230,2024-01-24 10:50:53,0.0
-12516,-444,8240,-191,85,-258,2024-01-24 10:50:53,0.0
-12560,-448,8336,-189,71,-249,2024-01-24 10:50:53,0.0
-12520,-560,8236,-206,69,-204,2024-01-24 10:50:53,0.0
-12428,-492,8332,-174,107,-216,2024-01-24 10:50:53,0.0
-12448,-528,8332,-178,155,-213,2024-01-24 10:50:53,0.0
-12520,-632,8404,-194,174,-247,2024-01-24 10:50:53,0.0
-12584,-676,8476,-187,158,-216,2024-01-24 10:50:53,0.0
-12568,-612,8252,-206,167,-210,2024-01-24 10:50:53,0.0
-12500,-544,8324,-190,165,-196,2024-01-24 10:50:53,0.0
-12600,-568,8396,-199,104,-204,2024-01-24 10:50:53,0.0
-12452,-600,8392,-180,123,-213,2024-01-24 10:50:53,0.0
-12468,-624,8320,-157,137,-195,2024-01-24 10:50:53,0.0
-12596,-536,8292,-168,171,-199,2024-01-24 10:50:53,0.0
-12624,-592,8392,-179,83,-140,2024-01-24 10:50:53,0.0
-12880,-520,8280,-212,-146,-155,2024-01-24 10:50:53,0.0
-13104,-432,8180,-188,-840,-98,2024-01-24 10:50:53,0.0
-13180,-436,8068,-190,-1901,-12,2024-01-24 10:50:53,0.0
-12808,-476,8032,-154,-2444,26,2024-01-24 10:50:53,0.0
-12172,-596,8336,-143,-2286,13,2024-01-24 10:50:53,0.0
-11956,-684,8576,-128,-1936,-45,2024-01-24 10:50:53,0.0
-11948,-716,8944,-117,-1442,-87,2024-01-24 10:50:53,0.0
-11880,-644,9112,-154,-788,-141,2024-01-24 10:50:53,0.0
-12064,-524,9072,-153,-284,-161,2024-01-24 10:50:53,0.0
-12212,-544,8968,-158,14,-178,2024-01-24 10:50:53,0.0
-12140,-456,9056,-133,202,-107,2024-01-24 10:50:53,0.0
-12156,-460,8964,-127,447,-109,2024-01-24 10:50:53,0.0
-12200,-428,9076,-164,612,-150,2024-01-24 10:50:53,0.0
-12432,-472,8764,-179,540,-141,2024-01-24 10:50:53,0.0
-12456,-464,8784,-169,335,-198,2024-01-24 10:50:53,0.0
-12296,-508,8684,-164,292,-203,2024-01-24 10:50:53,0.0
-12492,-444,8776,-155,263,-189,2024-01-24 10:50:53,0.0
-12472,-500,8744,-178,208,-209,2024-01-24 10:50:53,0.0
-12468,-540,8892,-191,233,-175,2024-01-24 10:50:53,0.0
-12300,-480,8780,-200,213,-184,2024-01-24 10:50:54,0.0
-12264,-516,8752,-192,204,-186,2024-01-24 10:50:54,0.0
-12432,-504,8852,-213,113,-171,2024-01-24 10:50:54,0.0
-12468,-500,8904,-191,106,-127,2024-01-24 10:50:54,0.0
-12432,-564,8832,-179,68,-50,2024-01-24 10:50:54,
