acceleration_x,acceleration_y,acceleration_z,gyroscope_x,gyroscope_y,gyroscope_z,timestamp,label
-13568,696,-208,-162,254,-137,2024-01-24 10:46:59,0.0
-13624,772,-328,-164,299,-125,2024-01-24 10:46:59,0.0
-13716,648,-460,-236,312,-136,2024-01-24 10:46:59,0.0
-13716,640,-464,-289,272,-145,2024-01-24 10:46:59,0.0
-13816,716,-280,-291,311,-156,2024-01-24 10:46:59,0.0
-13808,540,-344,-313,291,-148,2024-01-24 10:46:59,0.0
-13804,624,-172,-271,212,-145,2024-01-24 10:46:59,0.0
-13748,640,-296,-229,267,-173,2024-01-24 10:46:59,0.0
-13748,664,-252,-181,314,-207,2024-01-24 10:46:59,0.0
-13716,620,-268,-113,251,-271,2024-01-24 10:46:59,0.0
-13848,504,-256,-73,173,-255,2024-01-24 10:46:59,0.0
-13740,660,-264,-74,139,-245,2024-01-24 10:46:59,0.0
-13612,676,-448,-101,147,-218,2024-01-24 10:46:59,0.0
-13628,676,-340,-134,158,-221,2024-01-24 10:46:59,0.0
-13736,760,-228,-171,130,-193,2024-01-24 10:46:59,0.0
-13656,616,-328,-174,132,-125,2024-01-24 10:46:59,0.0
-13624,612,-380,-208,108,-79,2024-01-24 10:46:59,0.0
-13684,716,-328,-213,189,-26,2024-01-24 10:46:59,0.0
-13712,708,-288,-179,253,-13,2024-01-24 10:46:59,0.0
-13732,772,-280,-109,267,-50,2024-01-24 10:46:59,0.0
-13824,756,-200,-68,296,-128,2024-01-24 10:46:59,0.0
-13712,672,-268,-68,352,-124,2024-01-24 10:46:59,0.0
-13784,688,-188,-64,323,-172,2024-01-24 10:46:59,0.0
-13752,764,-240,-79,269,-164,2024-01-24 10:46:59,0.0
-13688,700,-404,-90,190,-183,2024-01-24 10:47:00,0.0
-13704,708,-508,-137,138,-153,2024-01-24 10:47:00,0.0
-13664,636,-240,-157,182,-175,2024-01-24 10:47:00,0.0
-13584,636,-328,-153,221,-197,2024-01-24 10:47:00,0.0
-13756,592,-372,-127,253,-211,2024-01-24 10:47:00,0.0
-13732,828,-364,-133,182,-192,2024-01-24 10:47:00,0.0
-13748,856,-380,-130,189,-233,2024-01-24 10:47:00,0.0
-13672,608,-136,-93,160,-211,2024-01-24 10:47:00,0.0
-13656,652,-280,-111,152,-189,2024-01-24 10:47:00,0.0
-13628,672,-156,-103,204,-141,2024-01-24 10:47:00,0.0
-13712,732,-64,-57,229,-106,2024-01-24 10:47:00,0.0
-13540,720,-268,-46,167,-91,2024-01-24 10:47:00,0.0
-13672,732,-232,1,236,-122,2024-01-24 10:47:00,0.0
-13748,716,-328,73,232,-129,2024-01-24 10:47:00,0.0
-13840,752,-260,87,259,-169,2024-01-24 10:47:00,0.0
-13804,680,-300,92,262,-242,2024-01-24 10:47:00,0.0
-13720,776,-252,25,243,-230,2024-01-24 10:47:00,0.0
-13748,688,-360,0,243,-233,2024-01-24 10:47:00,0.0
-13708,716,-484,-41,206,-227,2024-01-24 10:47:00,0.0
-13664,756,-404,-73,176,-242,2024-01-24 10:47:00,0.0
-13692,740,-392,-134,211,-221,2024-01-24 10:47:00,0.0
-13628,788,-380,-198,230,-284,2024-01-24 10:47:00,0.0
-13552,716,-432,-237,312,-279,2024-01-24 10:47:00,0.0
-13568,748,-412,-207,342,-293,2024-01-24 10:47:00,0.0
-13672,684,-372,-186,274,-304,2024-01-24 10:47:00,0.0
-13752,588,-388,-173,280,-301,2024-01-24 10:47:00,0.0
-13840,652,-232,-152,284,-295,2024-01-24 10:47:00,0.0
-13764,680,-372,-196,234,-299,2024-01-24 10:47:00,0.0
-13692,632,-408,-131,219,-287,2024-01-24 10:47:00,0.0
-13672,572,-452,-157,201,-244,2024-01-24 10:47:00,0.0
-13596,544,-596,-135,237,-161,2024-01-24 10:47:00,0.0
-13520,624,-424,-114,288,-134,2024-01-24 10:47:00,0.0
-13576,732,-412,-160,345,-115,2024-01-24 10:47:00,0.0
-13740,764,-564,-185,375,-86,2024-01-24 10:47:00,0.0
-13720,700,-304,-230,299,-87,2024-01-24 10:47:00,0.0
-13776,728,-420,-244,248,-75,2024-01-24 10:47:00,0.0
-13656,768,-444,-177,143,-103,2024-01-24 10:47:00,0.0
-13648,712,-476,-222,233,-156,2024-01-24 10:47:00,0.0
-13648,796,-440,-215,242,-199,2024-01-24 10:47:00,0.0
-13724,636,-376,-222,216,-221,2024-01-24 10:47:00,0.0
-13792,504,-436,-238,256,-266,2024-01-24 10:47:00,0.0
-13692,504,-580,-268,269,-301,2024-01-24 10:47:00,0.0
-13624,544,-536,-275,343,-310,2024-01-24 10:47:00,0.0
-13732,520,-408,-239,367,-286,2024-01-24 10:47:00,0.0
-13936,560,-384,-230,352,-247,2024-01-24 10:47:00,0.0
-13920,464,-412,-197,200,-310,2024-01-24 10:47:00,0.0
-13732,396,-596,-202,128,-331,2024-01-24 10:47:00,0.0
-13436,396,-472,-245,185,-348,2024-01-24 10:47:00,0.0
-13676,416,-432,-225,323,-298,2024-01-24 10:47:00,0.0
-13652,464,-316,-228,319,-256,2024-01-24 10:47:00,0.0
-13752,544,-424,-215,271,-182,2024-01-24 10:47:00,0.0
-13716,528,-448,-214,214,-97,2024-01-24 10:47:00,0.0
-13596,564,-512,-153,214,-48,2024-01-24 10:47:00,0.0
-13644,524,-460,-98,185,-39,2024-01-24 10:47:00,0.0
-13800,464,-196,-6,136,-13,2024-01-24 10:47:00,0.0
-13748,544,-184,114,67,-4,2024-01-24 10:47:00,0.0
-13616,620,-496,167,119,32,2024-01-24 10:47:00,0.0
-13588,632,-352,188,199,30,2024-01-24 10:47:00,0.0
-13636,708,-176,208,247,32,2024-01-24 10:47:00,0.0
-13616,688,-284,224,270,9,2024-01-24 10:47:00,0.0
-13700,620,-348,182,259,-11,2024-01-24 10:47:01,0.0
-13720,616,-536,119,307,-55,2024-01-24 10:47:01,0.0
-13772,684,-560,61,351,-85,2024-01-24 10:47:01,0.0
-13804,752,-584,11,308,-111,2024-01-24 10:47:01,0.0
-13836,704,-540,27,263,-129,2024-01-24 10:47:01,0.0
-13760,632,-464,18,146,-157,2024-01-24 10:47:01,0.0
-13684,636,-388,24,236,-175,2024-01-24 10:47:01,0.0
-13748,544,-492,70,236,-210,2024-01-24 10:47:01,0.0
-13836,576,-276,72,225,-235,2024-01-24 10:47:01,0.0
-13772,632,-316,138,222,-252,2024-01-24 10:47:01,0.0
-13600,524,-316,151,320,-243,2024-01-24 10:47:01,0.0
-13472,556,-408,239,485,-255,2024-01-24 10:47:01,0.0
-13524,452,-224,330,704,-331,2024-01-24 10:47:01,0.0
-13752,332,-276,500,921,-383,2024-01-24 10:47:01,0.0
-13940,204,-388,725,885,-412,2024-01-24 10:47:01,0.0
-13840,328,-688,918,816,-422,2024-01-24 10:47:01,
-13784,300,-756,1039,767,-458,2024-01-24 10:47:01,0.0
-13744,484,-996,1044,697,-533,2024-01-24 10:47:01,0.0
-13580,680,-964,1022,628,-602,2024-01-24 10:47:01,0.0
-13668,720,-908,922,571,-511,2024-01-24 10:47:01,0.0
-13680,1020,-884,770,446,-391,2024-01-24 10:47:01,0.0
-13808,1000,-672,666,233,-294,2024-01-24 10:47:01,0.0
-13592,1100,-644,602,32,-260,2024-01-24 10:47:01,0.0
-13800,720,-472,614,-183,-260,2024-01-24 10:47:01,0.0
-13780,712,-392,616,-186,-213,2024-01-24 10:47:01,0.0
-13492,752,-452,677,-79,-269,2024-01-24 10:47:01,0.0
-13312,732,-396,695,58,-328,2024-01-24 10:47:01,0.0
-13384,728,-436,669,241,-344,2024-01-24 10:47:01,0.0
-13296,688,-676,589,392,-320,2024-01-24 10:47:01,0.0
-13252,608,-708,458,538,-273,2024-01-24 10:47:01,0.0
-13356,568,-712,346,734,-186,2024-01-24 10:47:01,0.0
-13480,520,-544,240,778,-38,2024-01-24 10:47:01,0.0
-13608,340,-384,192,649,120,2024-01-24 10:47:01,0.0
-13728,252,-640,179,416,278,2024-01-24 10:47:01,0.0
-13636,208,-708,244,435,388,2024-01-24 10:47:01,0.0
-13500,280,-808,365,452,427,2024-01-24 10:47:01,0.0
-13584,464,-956,586,616,353,2024-01-24 10:47:01,0.0
-13764,684,-876,816,602,265,2024-01-24 10:47:01,0.0
-13884,744,-864,1022,509,96,2024-01-24 10:47:01,0.0
-13876,716,-912,1124,322,-142,2024-01-24 10:47:01,0.0
-13700,796,-1068,1074,316,-318,2024-01-24 10:47:01,0.0
-13764,804,-968,909,333,-434,2024-01-24 10:47:01,0.0
-13808,840,-960,725,148,-488,2024-01-24 10:47:01,0.0
-13720,808,-924,493,-58,-433,2024-01-24 10:47:01,0.0
-13776,564,-768,338,-143,-392,2024-01-24 10:47:01,0.0
-13484,528,-908,148,-110,-337,2024-01-24 10:47:01,0.0
-13344,416,-904,51,37,-303,2024-01-24 10:47:01,0.0
-13448,400,-652,44,77,-227,2024-01-24 10:47:01,0.0
-13460,532,-564,88,78,-161,2024-01-24 10:47:01,0.0
-13660,632,-580,124,26,-84,2024-01-24 10:47:01,0.0
-13544,812,-744,193,89,-25,2024-01-24 10:47:01,0.0
-13636,980,-624,103,148,40,2024-01-24 10:47:01,0.0
-13612,980,-748,67,194,85,2024-01-24 10:47:01,0.0
-13672,760,-620,-32,231,102,2024-01-24 10:47:01,0.0
-13552,668,-716,-67,142,104,2024-01-24 10:47:01,0.0
-13660,616,-788,-161,153,45,2024-01-24 10:47:01,0.0
-13792,624,-760,-233,76,69,2024-01-24 10:47:01,0.0
-13844,648,-592,-205,41,39,2024-01-24 10:47:01,0.0
-13876,608,-656,-224,-18,25,2024-01-24 10:47:01,0.0
-13624,596,-740,-199,95,-63,2024-01-24 10:47:02,0.0
-13480,540,-740,-300,206,-188,2024-01-24 10:47:02,0.0
-13708,512,-820,-374,289,-271,2024-01-24 10:47:02,0.0
-13608,544,-912,-515,205,-378,2024-01-24 10:47:02,0.0
-13564,664,-1056,-603,156,-442,2024-01-24 10:47:02,0.0
-13664,852,-800,-726,190,-464,2024-01-24 10:47:02,0.0
-13616,916,-780,-893,200,-438,2024-01-24 10:47:02,0.0
-13836,676,-848,-1034,21,-405,2024-01-24 10:47:02,0.0
-13760,672,-728,-1112,-174,-340,2024-01-24 10:47:02,0.0
-13636,472,-672,-1185,-213,-287,2024-01-24 10:47:02,0.0
-13648,368,-668,-1160,-280,-256,2024-01-24 10:47:02,0.0
-13660,536,-372,-1138,-187,-265,2024-01-24 10:47:02,0.0
-13700,472,-620,-1080,-175,-244,2024-01-24 10:47:02,0.0
-13716,452,-556,-965,-227,-294,2024-01-24 10:47:02,0.0
-13576,480,-452,-888,-204,-272,2024-01-24 10:47:02,0.0
-13500,480,-492,-881,-95,-229,2024-01-24 10:47:02,0.0
-13476,344,-348,-872,-21,-198,2024-01-24 10:47:02,0.0
-13460,488,-576,-898,133,-157,2024-01-24 10:47:02,0.0
-13656,564,-708,-894,226,-104,2024-01-24 10:47:02,0.0
-13912,580,-644,-859,169,-127,2024-01-24 10:47:02,0.0
-14008,420,-460,-828,49,-169,2024-01-24 10:47:02,0.0
-13828,468,-564,-887,-49,-235,2024-01-24 10:47:02,0.0
-13632,524,-620,-936,-118,-267,2024-01-24 10:47:02,0.0
-13456,460,-740,-1013,60,-234,2024-01-24 10:47:02,0.0
-13748,448,-776,-1114,-121,-175,2024-01-24 10:47:02,0.0
-13864,644,-656,-1067,-403,-189,2024-01-24 10:47:02,0.0
-13708,660,-448,-1009,-283,-236,2024-01-24 10:47:02,0.0
-13724,404,-284,-947,-53,-351,2024-01-24 10:47:02,0.0
-13644,372,-428,-871,53,-441,2024-01-24 10:47:02,0.0
-13844,300,-568,-931,-4,-492,2024-01-24 10:47:02,0.0
-13744,228,-656,-916,-14,-452,2024-01-24 10:47:02,0.0
-13688,164,-428,-945,-2,-403,2024-01-24 10:47:02,0.0
-13804,240,-444,-886,20,-341,2024-01-24 10:47:02,0.0
-13652,292,-484,-801,-56,-333,2024-01-24 10:47:02,0.0
-13628,316,-340,-693,-80,-361,2024-01-24 10:47:02,0.0
-13740,380,-348,-620,-86,-446,2024-01-24 10:47:02,0.0
-13656,316,-332,-519,-44,-456,2024-01-24 10:47:02,0.0
-13588,540,-300,-476,-35,-490,2024-01-24 10:47:02,0.0
-13788,612,-272,-430,6,-487,2024-01-24 10:47:02,0.0
-13832,412,-184,-404,-95,-452,2024-01-24 10:47:02,0.0
-13748,488,-292,-375,-73,-400,2024-01-24 10:47:02,0.0
-13580,372,-292,-370,-20,-347,2024-01-24 10:47:02,0.0
-13508,364,-260,-361,52,-334,2024-01-24 10:47:02,0.0
-13556,408,-372,-366,193,-248,2024-01-24 10:47:02,0.0
-13636,476,-336,-342,256,-238,2024-01-24 10:47:02,0.0
-13796,444,-276,-292,181,-229,2024-01-24 10:47:02,0.0
-13796,456,-280,-264,137,-216,2024-01-24 10:47:02,0.0
-13704,180,-248,-237,98,-221,2024-01-24 10:47:02,0.0
-13796,244,-256,-218,29,-176,2024-01-24 10:47:02,0.0
-13764,284,-316,-227,49,-137,2024-01-24 10:47:02,0.0
-13700,252,-136,-201,-34,-89,2024-01-24 10:47:02,0.0
-13668,268,-300,-175,6,-75,2024-01-24 10:47:02,0.0
-13672,304,-304,-94,60,-115,2024-01-24 10:47:02,0.0
-13720,264,-228,-7,93,-156,2024-01-24 10:47:02,0.0
-13660,344,-264,47,192,-209,2024-01-24 10:47:02,0.0
-13756,360,-176,91,212,-225,2024-01-24 10:47:02,0.0
-13708,536,-292,44,186,-247,2024-01-24 10:47:02,
-13708,444,-432,40,232,-196,2024-01-24 10:47:02,0.0
-13560,420,-448,18,262,-196,2024-01-24 10:47:03,0.0
-13712,412,-360,21,335,-132,2024-01-24 10:47:03,0.0
-13860,324,-292,38,309,-147,2024-01-24 10:47:03,0.0
-13832,300,-236,77,282,-154,2024-01-24 10:47:03,0.0
-13740,396,-180,135,225,-195,2024-01-24 10:47:03,0.0
-13636,412,-216,131,190,-212,2024-01-24 10:47:03,0.0
-13504,328,-116,122,204,-204,2024-01-24 10:47:03,0.0
-13500,416,-308,94,284,-191,2024-01-24 10:47:03,0.0
-13596,472,-352,116,352,-206,2024-01-24 10:47:03,0.0
-13696,352,-120,121,350,-172,2024-01-24 10:47:03,0.0
-13672,408,-112,111,311,-155,2024-01-24 10:47:03,0.0
-13756,548,-392,95,278,-178,2024-01-24 10:47:03,0.0
-13684,452,-292,85,243,-202,2024-01-24 10:47:03,0.0
-13796,384,-424,38,250,-219,2024-01-24 10:47:03,0.0
-13736,300,-460,-48,209,-180,2024-01-24 10:47:03,0.0
-13824,548,-320,-36,217,-147,2024-01-24 10:47:03,0.0
-13596,528,-500,-80,204,-150,2024-01-24 10:47:03,0.0
-13768,528,-420,-102,193,-213,2024-01-24 10:47:03,0.0
-13772,504,-440,-196,148,-246,2024-01-24 10:47:03,0.0
-13688,424,-480,-220,168,-218,2024-01-24 10:47:03,0.0
-13700,484,-440,-286,158,-198,2024-01-24 10:47:03,0.0
-13644,512,-416,-322,145,-169,2024-01-24 10:47:03,0.0
-13568,584,-292,-377,198,-146,2024-01-24 10:47:03,0.0
-13596,484,-520,-377,321,-186,2024-01-24 10:47:03,0.0
-13644,396,-384,-374,394,-235,2024-01-24 10:47:03,0.0
-13692,364,-660,-381,429,-259,2024-01-24 10:47:03,0.0
-13712,428,-484,-374,485,-295,2024-01-24 10:47:03,0.0
-13616,464,-256,-446,520,-330,2024-01-24 10:47:03,0.0
-13720,560,-428,-486,547,-291,2024-01-24 10:47:03,0.0
-13772,392,-472,-496,503,-276,2024-01-24 10:47:03,0.0
-13808,336,-340,-511,382,-240,2024-01-24 10:47:03,0.0
-13712,248,-332,-529,395,-249,2024-01-24 10:47:03,0.0
-13680,364,-272,-486,448,-261,2024-01-24 10:47:03,0.0
-13712,392,-412,-433,376,-278,2024-01-24 10:47:03,0.0
-13784,452,-260,-373,303,-276,2024-01-24 10:47:03,0.0
-13724,376,-320,-346,261,-301,2024-01-24 10:47:03,0.0
-13808,368,-284,-285,226,-305,2024-01-24 10:47:03,0.0
-13672,372,-432,-269,156,-303,2024-01-24 10:47:03,0.0
-13648,272,-412,-286,144,-268,2024-01-24 10:47:03,0.0
-13648,236,-516,-330,189,-224,2024-01-24 10:47:03,0.0
-13700,272,-528,-314,210,-182,2024-01-24 10:47:03,0.0
-13736,460,-564,-332,153,-137,2024-01-24 10:47:03,0.0
-13668,536,-492,-321,240,-191,2024-01-24 10:47:03,0.0
-13740,504,-576,-343,326,-248,2024-01-24 10:47:03,0.0
-13868,404,-512,-336,257,-294,2024-01-24 10:47:03,0.0
-13820,428,-540,-353,190,-325,2024-01-24 10:47:03,0.0
-13632,388,-548,-366,197,-259,2024-01-24 10:47:03,0.0
-13676,384,-496,-416,193,-262,2024-01-24 10:47:03,0.0
-13636,360,-388,-414,232,-201,2024-01-24 10:47:03,0.0
-13700,248,-484,-344,218,-149,2024-01-24 10:47:03,0.0
-13656,296,-480,-356,130,-108,2024-01-24 10:47:03,0.0
-13704,304,-544,-360,96,-66,2024-01-24 10:47:03,0.0
-13864,432,-456,-458,33,-50,2024-01-24 10:47:03,0.0
-13924,460,-452,-530,-77,19,2024-01-24 10:47:03,0.0
-14072,464,-396,-559,-136,36,2024-01-24 10:47:03,0.0
-13752,440,-556,-501,-140,62,2024-01-24 10:47:03,0.0
-13568,428,-568,-439,-53,26,2024-01-24 10:47:03,0.0
-13596,216,-368,-393,-36,-31,2024-01-24 10:47:03,0.0
-13560,72,-180,-314,-150,15,2024-01-24 10:47:04,0.0
-13676,284,-192,-235,-162,-5,2024-01-24 10:47:04,0.0
-13608,476,-484,-282,-229,-23,2024-01-24 10:47:04,0.0
-13744,440,-332,-289,-306,-42,2024-01-24 10:47:04,0.0
-13600,452,-220,-291,-218,2,2024-01-24 10:47:04,0.0
-13632,660,-408,-333,-190,41,2024-01-24 10:47:04,0.0
-13772,580,-292,-372,-210,-16,2024-01-24 10:47:04,0.0
-13824,540,-424,-453,-218,-98,2024-01-24 10:47:04,0.0
-13632,496,-396,-548,-161,-145,2024-01-24 10:47:04,0.0
-13560,556,-188,-603,-143,-168,2024-01-24 10:47:04,0.0
-13568,488,-212,-620,-119,-162,2024-01-24 10:47:04,0.0
-13752,380,-940,-786,40,-105,2024-01-24 10:47:04,0.0
-14732,556,-1888,-1247,-1206,-10,2024-01-24 10:47:04,0.0
-15132,596,-492,-1518,-4008,92,2024-01-24 10:47:04,0.0
-13560,304,1020,-1269,-4587,92,2024-01-24 10:47:04,0.0
-12820,184,1192,-934,-3178,114,2024-01-24 10:47:04,0.0
-13288,284,984,-635,-1716,75,2024-01-24 10:47:04,0.0
-13392,332,868,-342,-1028,-77,2024-01-24 10:47:04,0.0
-13616,400,760,-129,-276,-212,2024-01-24 10:47:04,0.0
-13752,444,668,12,125,-331,2024-01-24 10:47:04,0.0
-13556,452,280,136,398,-423,2024-01-24 10:47:04,0.0
-13404,412,336,123,682,-442,2024-01-24 10:47:04,0.0
-13280,520,408,162,1008,-349,2024-01-24 10:47:04,0.0
-13424,676,292,85,1277,-237,2024-01-24 10:47:04,0.0
-13620,940,516,60,1530,-183,2024-01-24 10:47:04,0.0
-13556,948,344,-54,1672,-134,2024-01-24 10:47:04,0.0
-13764,840,284,-150,1639,-129,2024-01-24 10:47:04,0.0
-13872,636,176,-261,1586,-145,2024-01-24 10:47:04,0.0
-13840,632,112,-388,1439,-136,2024-01-24 10:47:04,0.0
-13720,576,-52,-415,1333,-141,2024-01-24 10:47:04,0.0
-13600,616,8,-473,1255,-154,2024-01-24 10:47:04,0.0
-13892,540,220,-457,1121,-182,2024-01-24 10:47:04,0.0
-13992,508,-224,-462,928,-199,2024-01-24 10:47:04,0.0
-13964,340,4,-394,738,-239,2024-01-24 10:47:04,0.0
-14028,428,0,-411,533,-249,2024-01-24 10:47:04,0.0
-13944,436,88,-382,147,-255,2024-01-24 10:47:04,0.0
-14036,440,228,-312,-84,-212,2024-01-24 10:47:04,0.0
-13672,504,260,-346,-256,-216,2024-01-24 10:47:04,0.0
-13796,504,144,-302,-253,-234,2024-01-24 10:47:04,0.0
-13748,660,-104,-365,-177,-281,2024-01-24 10:47:04,0.0
-13540,736,-8,-434,-43,-234,2024-01-24 10:47:04,
-13576,740,64,-459,-13,-250,2024-01-24 10:47:04,0.0
-13620,656,128,-551,71,-232,2024-01-24 10:47:04,0.0
-13728,832,40,-585,248,-266,2024-01-24 10:47:04,0.0
-13708,680,-164,-629,340,-308,2024-01-24 10:47:04,0.0
-13736,648,-104,-647,358,-343,2024-01-24 10:47:04,0.0
-13688,508,-324,-683,398,-336,2024-01-24 10:47:04,0.0
-13720,512,-128,-771,333,-310,2024-01-24 10:47:04,0.0
-13700,548,-100,-823,260,-281,2024-01-24 10:47:04,0.0
-13704,516,-104,-804,233,-248,2024-01-24 10:47:04,0.0
-13704,404,-32,-799,253,-182,2024-01-24 10:47:04,0.0
-13836,568,20,-778,240,-197,2024-01-24 10:47:04,0.0
-13764,524,-68,-727,247,-226,2024-01-24 10:47:04,0.0
-13772,420,60,-672,237,-225,2024-01-24 10:47:04,0.0
-13736,476,24,-682,262,-263,2024-01-24 10:47:04,0.0
-13656,512,-40,-666,227,-282,2024-01-24 10:47:04,0.0
-13700,428,-64,-698,164,-294,2024-01-24 10:47:04,0.0
-13860,404,-60,-737,154,-226,2024-01-24 10:47:04,0.0
-13716,360,16,-715,214,-192,2024-01-24 10:47:04,0.0
-13812,348,-72,-757,281,-198,2024-01-24 10:47:04,0.0
-13972,308,256,-693,254,-252,2024-01-24 10:47:05,0.0
-13924,220,240,-644,369,-286,2024-01-24 10:47:05,0.0
-13992,416,-40,-588,395,-252,2024-01-24 10:47:05,0.0
-13748,464,-336,-508,212,-257,2024-01-24 10:47:05,0.0
-13612,420,-112,-479,54,-281,2024-01-24 10:47:05,0.0
-13788,380,-104,-412,-186,-265,2024-01-24 10:47:05,0.0
-13860,400,-112,-402,-411,-206,2024-01-24 10:47:05,0.0
-13632,396,76,-368,-441,-144,2024-01-24 10:47:05,0.0
-13488,340,-84,-417,-345,-141,2024-01-24 10:47:05,0.0
-13656,400,-148,-473,-158,-76,2024-01-24 10:47:05,0.0
-13636,344,0,-449,41,-54,2024-01-24 10:47:05,0.0
-13680,388,284,-440,342,-13,2024-01-24 10:47:05,0.0
-13944,552,88,-359,313,-1,2024-01-24 10:47:05,0.0
-13884,656,108,-320,-30,-126,2024-01-24 10:47:05,0.0
-13880,476,96,-263,-117,-193,2024-01-24 10:47:05,0.0
-13984,220,4,-247,-184,-234,2024-01-24 10:47:05,0.0
-13880,324,72,-223,-340,-199,2024-01-24 10:47:05,0.0
-13716,396,16,-210,-448,-191,2024-01-24 10:47:05,0.0
-13640,476,108,-187,-367,-156,2024-01-24 10:47:05,0.0
-13736,448,292,-107,-299,-189,2024-01-24 10:47:05,0.0
-13888,336,476,-54,-182,-260,2024-01-24 10:47:05,0.0
-13904,296,512,-34,53,-289,2024-01-24 10:47:05,0.0
-13916,428,232,-34,127,-276,2024-01-24 10:47:05,0.0
-13732,492,248,15,153,-240,2024-01-24 10:47:05,0.0
-13716,588,188,-13,45,-213,2024-01-24 10:47:05,0.0
-13668,532,-80,-108,-189,-185,2024-01-24 10:47:05,0.0
-13560,520,-176,-200,-404,-110,2024-01-24 10:47:05,0.0
-13580,476,-60,-241,-323,-107,2024-01-24 10:47:05,0.0
-13776,524,172,-284,-153,-90,2024-01-24 10:47:05,0.0
-13844,636,432,-308,126,-137,2024-01-24 10:47:05,0.0
-13892,724,392,-296,-1,-193,2024-01-24 10:47:05,0.0
-13904,488,520,-284,-99,-220,2024-01-24 10:47:05,0.0
-13864,636,584,-214,5,-256,2024-01-24 10:47:05,0.0
-13856,528,232,-179,-187,-296,2024-01-24 10:47:05,0.0
-13716,404,76,-189,-445,-289,2024-01-24 10:47:05,0.0
-13568,332,240,-127,-444,-225,2024-01-24 10:47:05,0.0
-13480,448,336,-70,-419,-143,2024-01-24 10:47:05,0.0
-13628,356,692,-47,-197,-2,2024-01-24 10:47:05,0.0
-13648,460,888,42,58,57,2024-01-24 10:47:05,0.0
-13592,336,508,81,444,129,2024-01-24 10:47:05,0.0
-13868,348,496,-21,478,119,2024-01-24 10:47:05,0.0
-14156,452,584,38,448,10,2024-01-24 10:47:05,0.0
-14240,568,420,54,100,-207,2024-01-24 10:47:05,0.0
-13796,628,216,18,-217,-467,2024-01-24 10:47:05,0.0
-13940,372,12,-87,-427,-653,2024-01-24 10:47:05,0.0
-14168,292,-152,-176,-817,-807,2024-01-24 10:47:05,0.0
-13984,276,-16,-72,-885,-966,2024-01-24 10:47:05,0.0
-14068,44,176,23,-855,-1181,2024-01-24 10:47:05,0.0
-13708,-184,92,235,-458,-1497,2024-01-24 10:47:05,0.0
-14164,-196,460,410,-785,-1791,2024-01-24 10:47:05,0.0
-13976,-72,888,602,-1030,-1948,2024-01-24 10:47:05,0.0
-13700,276,972,689,-380,-2079,2024-01-24 10:47:05,0.0
-13652,476,1156,488,377,-2016,2024-01-24 10:47:05,0.0
-13660,564,972,318,633,-1938,2024-01-24 10:47:05,0.0
-13688,540,680,67,724,-1845,2024-01-24 10:47:05,0.0
-13740,588,308,-297,620,-1666,2024-01-24 10:47:05,0.0
-13528,504,360,-889,295,-1552,2024-01-24 10:47:05,0.0
-13760,388,640,-1350,186,-1464,2024-01-24 10:47:05,0.0
-13776,304,676,-1748,301,-1324,2024-01-24 10:47:05,0.0
-13820,320,636,-2007,398,-1149,2024-01-24 10:47:06,0.0
-13596,-40,784,-2233,405,-1062,2024-01-24 10:47:06,0.0
-13684,-660,1140,-2328,590,-914,2024-01-24 10:47:06,0.0
-13448,-716,768,-2187,1034,-753,2024-01-24 10:47:06,0.0
-13148,-728,568,-2135,1487,-731,2024-01-24 10:47:06,0.0
-13944,-744,672,-2155,1514,-605,2024-01-24 10:47:06,0.0
-14352,-280,444,-2355,1365,-578,2024-01-24 10:47:06,0.0
-14208,268,292,-2572,1021,-751,2024-01-24 10:47:06,0.0
-13940,284,552,-2832,668,-912,2024-01-24 10:47:06,0.0
-13700,104,792,-3092,535,-888,2024-01-24 10:47:06,0.0
-13564,-456,652,-3216,779,-720,2024-01-24 10:47:06,0.0
-13916,-688,484,-3522,504,-507,2024-01-24 10:47:06,0.0
-13968,-952,416,-3792,287,-309,2024-01-24 10:47:06,0.0
-13924,-908,292,-3887,124,-321,2024-01-24 10:47:06,0.0
-13772,-1188,644,-3894,-415,-322,2024-01-24 10:47:06,0.0
-13460,-872,780,-3838,-240,-288,2024-01-24 10:47:06,0.0
-13232,-1072,1340,-3875,-40,-280,2024-01-24 10:47:06,0.0
-13632,-1108,1432,-3831,48,-222,2024-01-24 10:47:06,0.0
-13748,-884,1508,-3813,10,-100,2024-01-24 10:47:06,0.0
-13416,-620,1412,-3810,253,29,2024-01-24 10:47:06,0.0
-12880,-388,1704,-3743,580,76,2024-01-24 10:47:06,0.0
-12840,-568,1708,-3616,901,40,2024-01-24 10:47:06,
-13704,-352,976,-3571,1548,155,2024-01-24 10:47:06,0.0
-14624,-168,876,-3457,1571,267,2024-01-24 10:47:06,0.0
-14880,52,948,-3296,1075,352,2024-01-24 10:47:06,0.0
-14016,-160,400,-3133,1090,549,2024-01-24 10:47:06,0.0
-12440,-864,-1516,-2877,2883,448,2024-01-24 10:47:06,0.0
-13000,-368,-2308,-2890,4087,-97,2024-01-24 10:47:06,0.0
-14544,708,-1364,-2663,2987,-775,2024-01-24 10:47:06,0.0
-14492,980,-912,-2618,973,-1954,2024-01-24 10:47:06,0.0
-14792,440,-236,-2807,789,-2854,2024-01-24 10:47:06,0.0
-14276,-204,-292,-3474,361,-3112,2024-01-24 10:47:06,0.0
-13308,-1380,-544,-3951,32,-2823,2024-01-24 10:47:06,0.0
-13084,-1640,-536,-4682,-157,-2460,2024-01-24 10:47:06,0.0
-13792,-1560,156,-5064,-427,-1941,2024-01-24 10:47:06,0.0
-13864,-1616,-360,-4839,88,-1395,2024-01-24 10:47:06,0.0
-14268,-1360,-960,-4702,542,-974,2024-01-24 10:47:06,0.0
-14160,-1136,-564,-4399,766,-770,2024-01-24 10:47:06,0.0
-14320,-560,-568,-4162,1155,-571,2024-01-24 10:47:06,0.0
-14384,-688,-408,-3817,1197,-337,2024-01-24 10:47:06,0.0
-14316,-800,-404,-3453,842,-245,2024-01-24 10:47:06,0.0
-13956,-740,-272,-3195,505,-281,2024-01-24 10:47:06,0.0
-13736,-788,24,-2773,165,-319,2024-01-24 10:47:06,0.0
-13544,-652,-216,-2094,-68,-366,2024-01-24 10:47:06,0.0
-13208,-724,-872,-1488,-191,-166,2024-01-24 10:47:06,0.0
-12788,-1032,-1016,-1111,56,7,2024-01-24 10:47:06,0.0
-12968,-1044,-1148,-989,510,221,2024-01-24 10:47:06,0.0
-13488,-860,-1136,-1021,846,443,2024-01-24 10:47:06,0.0
-13628,-496,-1088,-1240,967,468,2024-01-24 10:47:06,0.0
-14032,360,-708,-1442,833,424,2024-01-24 10:47:06,0.0
-13976,760,-924,-1656,752,441,2024-01-24 10:47:06,0.0
-13748,916,-1044,-1862,740,552,2024-01-24 10:47:06,0.0
-13536,616,-1060,-2032,683,639,2024-01-24 10:47:06,0.0
-13440,-72,-792,-2170,746,650,2024-01-24 10:47:06,0.0
-13592,-296,-920,-2273,820,592,2024-01-24 10:47:06,0.0
-13708,-380,-1244,-2456,686,605,2024-01-24 10:47:06,0.0
-13936,-244,-1408,-2495,453,630,2024-01-24 10:47:06,0.0
-13788,160,-1380,-2430,166,682,2024-01-24 10:47:06,0.0
-13508,660,-1148,-2342,36,761,2024-01-24 10:47:07,0.0
-13244,732,-1184,-2424,400,769,2024-01-24 10:47:07,0.0
-13228,848,-1488,-2487,1000,831,2024-01-24 10:47:07,0.0
-13276,500,-1852,-2549,1452,774,2024-01-24 10:47:07,0.0
-12992,392,-1820,-2816,1489,741,2024-01-24 10:47:07,0.0
-12740,192,-1292,-3140,2000,609,2024-01-24 10:47:07,0.0
-12804,112,-900,-3284,2480,434,2024-01-24 10:47:07,0.0
-12956,-168,-364,-3314,2754,187,2024-01-24 10:47:07,0.0
-13536,-268,-240,-3274,2751,12,2024-01-24 10:47:07,0.0
-13792,-132,-144,-3184,2520,-7,2024-01-24 10:47:07,0.0
-13792,28,-560,-3030,2532,-102,2024-01-24 10:47:07,0.0
-14092,76,-700,-2994,2393,-246,2024-01-24 10:47:07,0.0
-14228,84,-260,-2816,1749,-446,2024-01-24 10:47:07,0.0
-14260,-228,328,-2346,1096,-646,2024-01-24 10:47:07,0.0
-14244,-220,552,-1828,1078,-543,2024-01-24 10:47:07,0.0
-14080,-200,0,-1488,1465,-438,2024-01-24 10:47:07,0.0
-14104,360,-512,-1289,1425,-261,2024-01-24 10:47:07,0.0
-13728,736,-632,-1138,1151,-232,2024-01-24 10:47:07,0.0
-13596,580,-408,-989,892,-314,2024-01-24 10:47:07,0.0
-13492,496,-128,-924,573,-441,2024-01-24 10:47:07,0.0
-13396,536,-48,-787,376,-527,2024-01-24 10:47:07,0.0
-13464,640,24,-676,61,-661,2024-01-24 10:47:07,0.0
-13416,700,-448,-431,-81,-905,2024-01-24 10:47:07,0.0
-14128,332,-416,-233,-491,-1159,2024-01-24 10:47:07,0.0
-14296,364,-880,-69,-763,-1295,2024-01-24 10:47:07,0.0
-14160,268,-1292,41,-593,-1335,2024-01-24 10:47:07,0.0
-14164,484,-1696,94,-411,-1206,2024-01-24 10:47:07,0.0
-14408,152,-1316,107,-371,-979,2024-01-24 10:47:07,0.0
-14428,-184,-1348,163,-468,-612,2024-01-24 10:47:07,0.0
-13800,-536,-1076,292,-568,-521,2024-01-24 10:47:07,0.0
-13048,-592,-1744,279,-659,-616,2024-01-24 10:47:07,0.0
-11928,-712,-1608,277,-105,-761,2024-01-24 10:47:07,0.0
-11676,-496,-1900,382,584,-1008,2024-01-24 10:47:07,0.0
-11860,-548,-1696,649,1165,-1291,2024-01-24 10:47:07,0.0
-12312,-88,-1668,899,1548,-1410,2024-01-24 10:47:07,0.0
-13132,36,-1612,1005,1704,-1372,2024-01-24 10:47:07,0.0
-14280,204,-1776,983,1435,-1354,2024-01-24 10:47:07,0.0
-14408,-36,-2104,982,504,-1342,2024-01-24 10:47:07,0.0
-14228,236,-2528,919,-334,-1186,2024-01-24 10:47:07,0.0
-13672,60,-2376,919,-471,-1118,2024-01-24 10:47:07,0.0
-13832,-236,-2976,546,-172,-1112,2024-01-24 10:47:07,0.0
-14580,-536,-2584,169,-405,-1053,2024-01-24 10:47:07,0.0
-14488,-592,-2160,5,-971,-974,2024-01-24 10:47:07,0.0
-14372,-528,-2020,-137,-1587,-655,2024-01-24 10:47:07,0.0
-13668,-72,-1972,-517,-1798,-311,2024-01-24 10:47:07,0.0
-13756,-112,-1596,-614,-1854,-146,2024-01-24 10:47:07,0.0
-13780,-316,-1088,-704,-2224,-90,2024-01-24 10:47:07,0.0
-13480,-692,-500,-463,-2286,-79,2024-01-24 10:47:07,0.0
-13000,-996,-848,-222,-2043,-58,2024-01-24 10:47:07,0.0
-12700,-988,-712,-79,-1922,-76,2024-01-24 10:47:07,0.0
-12332,-920,-848,130,-1493,-187,2024-01-24 10:47:07,0.0
-12272,-744,-816,336,-848,-272,2024-01-24 10:47:07,0.0
-12784,-392,-920,370,2,-213,2024-01-24 10:47:07,0.0
-13452,-344,-908,445,484,-155,2024-01-24 10:47:07,0.0
-13804,-164,-1088,343,576,-92,2024-01-24 10:47:07,0.0
-13892,-340,-1028,198,662,-104,2024-01-24 10:47:07,0.0
-13924,-340,-1000,9,703,-114,2024-01-24 10:47:07,0.0
-14012,-408,-1116,-147,561,-131,2024-01-24 10:47:07,0.0
-14000,-280,-780,-435,320,-138,2024-01-24 10:47:07,0.0
-14220,-356,-480,-716,66,-207,2024-01-24 10:47:08,0.0
-14136,-244,-636,-938,-86,-164,2024-01-24 10:47:08,0.0
-13844,-340,-568,-1067,-117,-164,2024-01-24 10:47:08,0.0
-13772,-444,-524,-1112,-33,-179,2024-01-24 10:47:08,0.0
-13808,-640,-512,-1160,-3,-109,2024-01-24 10:47:08,
-13912,-624,-424,-1175,66,-91,2024-01-24 10:47:08,0.0
-13968,-640,-480,-1140,-10,-101,2024-01-24 10:47:08,0.0
-13840,-596,-632,-1017,-104,-95,2024-01-24 10:47:08,0.0
-13680,-468,-764,-966,-168,-161,2024-01-24 10:47:08,0.0
-13532,-648,-848,-953,-129,-283,2024-01-24 10:47:08,0.0
-13576,-644,-764,-959,19,-345,2024-01-24 10:47:08,0.0
-13572,-588,-708,-912,223,-296,2024-01-24 10:47:08,0.0
-13560,-656,-1016,-870,341,-214,2024-01-24 10:47:08,0.0
-13544,-708,-804,-868,437,-141,2024-01-24 10:47:08,0.0
-13660,-700,-760,-858,489,-40,2024-01-24 10:47:08,0.0
-13496,-760,-728,-820,478,37,2024-01-24 10:47:08,0.0
-13540,-752,-688,-824,439,136,2024-01-24 10:47:08,0.0
-13448,-500,-716,-700,529,108,2024-01-24 10:47:08,0.0
-13612,-632,-720,-649,588,78,2024-01-24 10:47:08,0.0
-13596,-588,-728,-576,644,45,2024-01-24 10:47:08,0.0
-13684,-592,-1208,-552,624,80,2024-01-24 10:47:08,0.0
-13736,-476,-860,-519,620,69,2024-01-24 10:47:08,0.0
-13820,-380,-952,-500,606,57,2024-01-24 10:47:08,0.0
-13992,-352,-848,-521,391,19,2024-01-24 10:47:08,0.0
-14008,-336,-848,-521,278,-63,2024-01-24 10:47:08,0.0
-13852,-332,-880,-470,146,-125,2024-01-24 10:47:08,0.0
-13672,-316,-832,-476,-78,-197,2024-01-24 10:47:08,0.0
-13672,-312,-992,-480,-58,-262,2024-01-24 10:47:08,0.0
-13480,-316,-860,-544,-70,-307,2024-01-24 10:47:08,0.0
-13484,-348,-800,-608,-2,-335,2024-01-24 10:47:08,0.0
-13456,-340,-908,-616,138,-327,2024-01-24 10:47:08,0.0
-13652,-420,-852,-588,183,-294,2024-01-24 10:47:08,0.0
-13500,-432,-1028,-577,253,-224,2024-01-24 10:47:08,0.0
-13608,-428,-928,-512,366,-214,2024-01-24 10:47:08,0.0
-13600,-440,-800,-505,376,-136,2024-01-24 10:47:08,0.0
-13608,-452,-832,-419,413,-130,2024-01-24 10:47:08,0.0
-13636,-464,-956,-311,367,-87,2024-01-24 10:47:08,0.0
-13660,-388,-880,-241,397,-98,2024-01-24 10:47:08,0.0
-13720,-456,-816,-179,474,-90,2024-01-24 10:47:08,0.0
-13712,-448,-804,-146,477,-88,2024-01-24 10:47:08,0.0
-13708,-484,-880,-112,447,-118,2024-01-24 10:47:08,0.0
-13748,-324,-1060,-67,468,-83,2024-01-24 10:47:08,0.0
-13628,-472,-1088,-116,380,-78,2024-01-24 10:47:08,0.0
-13640,-280,-872,-102,414,-43,2024-01-24 10:47:08,0.0
-13668,-288,-860,-111,375,-83,2024-01-24 10:47:08,0.0
-13748,-360,-1072,-58,230,-101,2024-01-24 10:47:08,0.0
-13664,-420,-864,-75,146,-168,2024-01-24 10:47:08,0.0
-13576,-536,-944,-88,209,-142,2024-01-24 10:47:08,0.0
-13584,-372,-1028,-118,221,-190,2024-01-24 10:47:08,0.0
-13536,-392,-1056,-107,261,-189,2024-01-24 10:47:08,0.0
-13620,-344,-1028,-99,319,-190,2024-01-24 10:47:08,0.0
-13632,-352,-952,-132,311,-193,2024-01-24 10:47:08,0.0
-13680,-324,-892,-101,421,-177,2024-01-24 10:47:08,0.0
-13684,-316,-944,-56,436,-171,2024-01-24 10:47:08,0.0
-13608,-328,-896,-43,395,-138,2024-01-24 10:47:08,0.0
-13584,-364,-876,-49,431,-142,2024-01-24 10:47:08,0.0
-13688,-544,-852,-58,462,-117,2024-01-24 10:47:08,0.0
-13588,-420,-952,16,504,-72,2024-01-24 10:47:08,0.0
-13556,-392,-752,66,538,-49,2024-01-24 10:47:09,0.0
-13496,-360,-864,122,537,-40,2024-01-24 10:47:09,0.0
-13796,-480,-900,151,498,-60,2024-01-24 10:47:09,0.0
-13668,-432,-936,186,385,-61,2024-01-24 10:47:09,0.0
-13616,-424,-1060,207,335,-110,2024-01-24 10:47:09,0.0
-13680,-228,-1060,194,315,-112,2024-01-24 10:47:09,0.0
-13712,-348,-1076,169,288,-118,2024-01-24 10:47:09,0.0
-13712,-320,-1072,166,266,-110,2024-01-24 10:47:09,0.0
-13656,-268,-1148,130,245,-159,2024-01-24 10:47:09,0.0
-13732,-320,-1208,133,187,-158,2024-01-24 10:47:09,0.0
-13628,-320,-1072,95,198,-133,2024-01-24 10:47:09,0.0
-13628,-368,-1084,41,145,-138,2024-01-24 10:47:09,0.0
-13424,-396,-1120,56,160,-164,2024-01-24 10:47:09,0.0
-13512,-308,-1044,-39,224,-149,2024-01-24 10:47:09,0.0
-13544,-400,-1048,-73,266,-182,2024-01-24 10:47:09,0.0
-13572,-324,-1056,-77,281,-175,2024-01-24 10:47:09,0.0
-13628,-280,-1152,-80,260,-180,2024-01-24 10:47:09,0.0
-13656,-212,-1152,-94,280,-135,2024-01-24 10:47:09,0.0
-13672,-184,-1216,-129,223,-106,2024-01-24 10:47:09,0.0
-13652,-312,-1312,-151,140,-122,2024-01-24 10:47:09,0.0
-13592,-276,-1116,-214,133,-154,2024-01-24 10:47:09,0.0
-13668,-284,-1140,-200,136,-144,2024-01-24 10:47:09,0.0
-13572,-352,-1240,-220,202,-165,2024-01-24 10:47:09,0.0
-13556,-256,-1260,-234,241,-140,2024-01-24 10:47:09,0.0
-13404,-292,-1168,-283,295,-157,2024-01-24 10:47:09,0.0
-13512,-256,-1064,-299,309,-167,2024-01-24 10:47:09,0.0
-13568,-296,-1168,-339,260,-148,2024-01-24 10:47:09,0.0
-13608,-260,-1292,-354,264,-169,2024-01-24 10:47:09,0.0
-13556,-372,-1220,-383,314,-197,2024-01-24 10:47:09,0.0
-13632,-384,-1068,-399,296,-203,2024-01-24 10:47:09,0.0
-13620,-356,-1160,-395,263,-194,2024-01-24 10:47:09,0.0
-13584,-336,-1256,-403,223,-191,2024-01-24 10:47:09,0.0
-13656,-352,-1120,-383,208,-177,2024-01-24 10:47:09,0.0
-13676,-352,-1156,-382,190,-160,2024-01-24 10:47:09,0.0
-13672,-276,-1132,-347,187,-137,2024-01-24 10:47:09,0.0
-13740,-196,-1176,-299,190,-111,2024-01-24 10:47:09,0.0
-13696,-332,-1244,-254,146,-116,2024-01-24 10:47:09,0.0
-13572,-436,-1248,-215,167,-114,2024-01-24 10:47:09,0.0
-13552,-428,-1144,-271,159,-115,2024-01-24 10:47:09,0.0
-13584,-384,-1180,-200,184,-96,2024-01-24 10:47:09,0.0
-13608,-304,-1084,-163,231,-133,2024-01-24 10:47:09,0.0
-13584,-356,-1064,-113,219,-113,2024-01-24 10:47:09,0.0
-13628,-316,-1104,-132,230,-126,2024-01-24 10:47:09,0.0
-13632,-308,-1080,-70,240,-138,2024-01-24 10:47:09,0.0
-13608,-280,-1132,-104,212,-119,2024-01-24 10:47:09,0.0
-13592,-308,-1176,-124,205,-140,2024-01-24 10:47:09,0.0
-13672,-200,-1032,-151,191,-115,2024-01-24 10:47:09,
