acceleration_x,acceleration_y,acceleration_z,gyroscope_x,gyroscope_y,gyroscope_z,timestamp,label
-3471,13,139,921,328,-207,2024-02-05 15:49:35.961,0.0
-3444,-43,221,618,150,-161,2024-02-05 15:49:36.025,0.0
-3459,-6,158,364,204,-187,2024-02-05 15:49:36.074,0.0
-3502,-36,172,32,217,-198,2024-02-05 15:49:36.132,0.0
-3444,-17,199,-264,62,-72,2024-02-05 15:49:36.205,0.0
-3455,-42,207,-365,173,-82,2024-02-05 15:49:36.246,0.0
-3487,-47,213,-407,303,-208,2024-02-05 15:49:36.302,0.0
-3465,-54,141,-472,168,-176,2024-02-05 15:49:36.359,0.0
-3426,-60,227,-539,86,-111,2024-02-05 15:49:36.417,0.0
-3443,-43,202,-471,251,-247,2024-02-05 15:49:36.473,0.0
-3463,-49,234,-401,351,-254,2024-02-05 15:49:36.531,0.0
-3486,-50,217,-261,172,-192,2024-02-05 15:49:36.582,0.0
-3440,-24,169,-286,130,-158,2024-02-05 15:49:36.647,0.0
-3449,-43,209,-292,231,-69,2024-02-05 15:49:36.696,0.0
-3425,-18,188,-297,156,-114,2024-02-05 15:49:36.753,0.0
-3472,-29,205,-207,143,-171,2024-02-05 15:49:36.809,0.0
-3496,-110,247,-16,27,-187,2024-02-05 15:49:36.874,0.0
-3450,-112,241,270,-32,-279,2024-02-05 15:49:36.923,0.0
-3452,-71,190,324,81,-313,2024-02-05 15:49:36.987,0.0
-3448,11,173,63,37,-188,2024-02-05 15:49:37.035,0.0
-3409,19,205,-56,150,-78,2024-02-05 15:49:37.103,0.0
-3437,-36,214,-61,261,-162,2024-02-05 15:49:37.146,0.0
-3431,-2,234,-108,202,-176,2024-02-05 15:49:37.204,0.0
-3462,31,248,-262,217,-143,2024-02-05 15:49:37.268,0.0
-3463,-11,234,-255,48,-104,2024-02-05 15:49:37.325,0.0
-3431,-97,244,-90,3,-206,2024-02-05 15:49:37.374,0.0
-3446,-14,237,63,15,-219,2024-02-05 15:49:37.439,0.0
-3438,-36,276,-30,48,-226,2024-02-05 15:49:37.496,0.0
-3404,0,221,-227,240,-236,2024-02-05 15:49:37.554,0.0
-3459,-25,235,-448,432,-176,2024-02-05 15:49:37.610,0.0
-3505,-36,230,-528,224,-115,2024-02-05 15:49:37.659,0.0
-3468,-48,238,-491,48,-33,2024-02-05 15:49:37.719,0.0
-3454,-59,285,-354,58,-75,2024-02-05 15:49:37.775,0.0
-3434,-72,250,-172,93,-134,2024-02-05 15:49:37.836,0.0
-3471,-58,288,-78,179,-174,2024-02-05 15:49:37.892,0.0
-3451,-39,234,-112,197,-160,2024-02-05 15:49:37.950,0.0
-3456,1,220,-212,218,-210,2024-02-05 15:49:37.999,0.0
-3466,34,223,-294,234,-202,2024-02-05 15:49:38.057,0.0
-3450,11,230,-344,144,-151,2024-02-05 15:49:38.116,0.0
-3454,5,242,-410,235,-117,2024-02-05 15:49:38.174,0.0
-3449,4,228,-328,179,-141,2024-02-05 15:49:38.232,0.0
-3458,-38,265,-274,118,-203,2024-02-05 15:49:38.290,0.0
-3444,-8,267,-223,153,-208,2024-02-05 15:49:38.339,0.0
-3458,-36,301,-170,128,-234,2024-02-05 15:49:38.397,0.0
-3433,-49,219,-66,194,-266,2024-02-05 15:49:38.456,0.0
-3473,-37,276,-47,270,-229,2024-02-05 15:49:38.512,0.0
-3446,-24,267,-51,171,-208,2024-02-05 15:49:38.577,0.0
-3446,-46,261,-17,187,-216,2024-02-05 15:49:38.635,0.0
-3429,-18,245,8,212,-233,2024-02-05 15:49:38.683,0.0
-3483,-52,254,-43,201,-173,2024-02-05 15:49:38.741,0.0
-3455,-44,241,-77,186,-150,2024-02-05 15:49:38.790,0.0
-3478,-49,230,-59,156,-163,2024-02-05 15:49:38.849,0.0
-3454,-32,210,-148,200,-186,2024-02-05 15:49:38.906,0.0
-3423,-48,238,-187,189,-175,2024-02-05 15:49:38.969,0.0
-3452,-35,262,-207,249,-136,2024-02-05 15:49:39.017,0.0
-3478,-43,238,-222,222,-120,2024-02-05 15:49:39.082,0.0
-3451,14,246,-268,218,-83,2024-02-05 15:49:39.141,0.0
-3439,-4,247,-283,207,-93,2024-02-05 15:49:39.190,0.0
-3463,-5,200,-292,209,-152,2024-02-05 15:49:39.243,0.0
-3465,8,230,-341,175,-150,2024-02-05 15:49:39.306,0.0
-3461,-15,236,-320,151,-163,2024-02-05 15:49:39.364,0.0
-3458,-32,260,-230,184,-190,2024-02-05 15:49:39.420,0.0
-3453,-43,256,-183,166,-224,2024-02-05 15:49:39.477,0.0
-3417,-12,241,-116,95,-210,2024-02-05 15:49:39.533,0.0
-3452,-39,241,-82,243,-226,2024-02-05 15:49:39.593,0.0
-3455,-24,247,-103,215,-158,2024-02-05 15:49:39.642,0.0
-3460,-21,247,-87,190,-196,2024-02-05 15:49:39.700,0.0
-3468,-24,263,-29,214,-204,2024-02-05 15:49:39.757,0.0
-3484,-16,263,-66,157,-171,2024-02-05 15:49:39.815,0.0
-3468,-24,257,-132,240,-150,2024-02-05 15:49:39.871,0.0
-3452,-33,260,-98,214,-151,2024-02-05 15:49:39.928,0.0
-3436,-35,232,-105,189,-159,2024-02-05 15:49:39.984,0.0
-3456,5,233,-133,192,-157,2024-02-05 15:49:40.049,0.0
-3441,-20,238,-277,223,-162,2024-02-05 15:49:40.097,0.0
-3470,-54,238,-275,245,-205,2024-02-05 15:49:40.154,0.0
-3469,-38,229,-225,274,-197,2024-02-05 15:49:40.205,0.0
-3475,-49,244,-201,320,-206,2024-02-05 15:49:40.265,0.0
-3459,-16,178,-248,321,-199,2024-02-05 15:49:40.322,0.0
-3492,-7,202,-347,310,-132,2024-02-05 15:49:40.379,0.0
-3467,-45,235,-240,237,-175,2024-02-05 15:49:40.442,0.0
-3419,-8,187,-197,228,-198,2024-02-05 15:49:40.500,0.0
-3470,-20,222,-220,219,-166,2024-02-05 15:49:40.561,0.0
-3463,-23,218,-250,220,-160,2024-02-05 15:49:40.609,0.0
-3436,-13,229,-292,266,-143,2024-02-05 15:49:40.666,0.0
-3448,-35,226,-233,266,-145,2024-02-05 15:49:40.726,0.0
-3458,-24,221,-182,173,-170,2024-02-05 15:49:40.782,0.0
-3480,-28,219,-167,127,-167,2024-02-05 15:49:40.839,0.0
-3439,-9,177,-214,145,-164,2024-02-05 15:49:40.895,0.0
-3429,-11,175,-220,256,-158,2024-02-05 15:49:40.951,0.0
-3432,2,233,-282,432,-176,2024-02-05 15:49:41.015,0.0
-3456,-21,240,-331,466,-134,2024-02-05 15:49:41.063,0.0
-3467,-49,243,-279,264,-146,2024-02-05 15:49:41.116,0.0
-3502,-1,232,-130,132,-163,2024-02-05 15:49:41.180,0.0
-3458,-33,130,-101,106,-244,2024-02-05 15:49:41.233,0.0
-3450,-24,192,-181,529,-457,2024-02-05 15:49:41.298,0.0
-3469,8,199,-438,856,-677,2024-02-05 15:49:41.349,0.0
-3394,8,197,-756,858,-603,2024-02-05 15:49:41.398,0.0
-3483,-10,92,-892,140,-669,2024-02-05 15:49:41.455,0.0
-3453,-99,153,-540,503,-733,2024-02-05 15:49:41.512,0.0
-3414,-181,184,-170,515,-848,2024-02-05 15:49:41.573,
-3404,-81,52,120,152,-608,2024-02-05 15:49:41.631,0.0
-3462,-45,126,-86,326,-395,2024-02-05 15:49:41.688,0.0
-3390,-58,57,-260,340,-363,2024-02-05 15:49:41.737,0.0
-3350,-276,131,-493,-302,-212,2024-02-05 15:49:41.794,0.0
-3231,-382,101,-172,-136,-79,2024-02-05 15:49:41.853,0.0
-3449,-132,82,500,-450,350,2024-02-05 15:49:41.918,0.0
-3461,-165,124,137,-105,563,2024-02-05 15:49:41.967,0.0
-3426,40,114,-327,315,339,2024-02-05 15:49:42.024,0.0
-3415,-274,86,-639,-174,159,2024-02-05 15:49:42.081,0.0
-3515,-124,154,-470,534,-204,2024-02-05 15:49:42.137,0.0
-3431,-130,168,-346,223,-208,2024-02-05 15:49:42.194,0.0
-3558,-40,178,-164,94,54,2024-02-05 15:49:42.250,0.0
-3232,-91,96,-70,-161,621,2024-02-05 15:49:42.308,0.0
-3518,-95,147,-128,-493,120,2024-02-05 15:49:42.365,0.0
-3433,-75,157,-144,-234,153,2024-02-05 15:49:42.422,0.0
-3462,-88,156,-70,-13,-127,2024-02-05 15:49:42.482,0.0
-3470,-60,138,54,159,-164,2024-02-05 15:49:42.539,0.0
-3476,-54,113,179,70,-202,2024-02-05 15:49:42.590,0.0
-3467,-68,150,532,-38,-207,2024-02-05 15:49:42.647,0.0
-3471,-49,194,809,-33,-295,2024-02-05 15:49:42.704,0.0
-3444,-19,183,716,-72,-270,2024-02-05 15:49:42.770,0.0
-3434,14,162,332,55,-249,2024-02-05 15:49:42.818,0.0
-3449,2,132,-164,251,-222,2024-02-05 15:49:42.874,0.0
-3463,0,180,-679,88,-172,2024-02-05 15:49:42.934,0.0
-3423,-37,200,-1145,257,-116,2024-02-05 15:49:42.983,0.0
-3444,-48,244,-1399,98,-136,2024-02-05 15:49:43.048,0.0
-3465,-95,223,-1230,128,-156,2024-02-05 15:49:43.099,0.0
-3465,-94,259,-679,77,-134,2024-02-05 15:49:43.157,0.0
-3483,-41,257,-196,-1,-117,2024-02-05 15:49:43.221,0.0
-3465,-15,231,112,-101,-81,2024-02-05 15:49:43.270,0.0
-3418,-31,195,62,26,-132,2024-02-05 15:49:43.321,0.0
-3464,-50,185,-35,260,-204,2024-02-05 15:49:43.378,0.0
-3443,-62,217,-44,302,-183,2024-02-05 15:49:43.437,0.0
-3458,-32,205,-28,221,-140,2024-02-05 15:49:43.494,0.0
-3475,-65,231,69,248,-133,2024-02-05 15:49:43.550,0.0
-3451,-58,234,221,227,-217,2024-02-05 15:49:43.610,0.0
-3453,12,176,216,224,-205,2024-02-05 15:49:43.668,0.0
-3477,-11,202,49,252,-156,2024-02-05 15:49:43.724,0.0
-3426,-86,196,93,173,-189,2024-02-05 15:49:43.773,0.0
-3432,-66,211,223,351,-225,2024-02-05 15:49:43.829,0.0
-3476,-9,218,154,326,-166,2024-02-05 15:49:43.894,0.0
-3371,-12,228,-75,178,-132,2024-02-05 15:49:43.950,0.0
-3432,40,203,-460,410,-160,2024-02-05 15:49:44.007,0.0
-3490,45,193,-922,444,-195,2024-02-05 15:49:44.056,0.0
-3449,-52,231,-1017,420,-180,2024-02-05 15:49:44.120,0.0
-3497,-118,224,-637,388,-216,2024-02-05 15:49:44.177,0.0
-3402,-79,215,-261,261,-194,2024-02-05 15:49:44.227,0.0
-3464,-44,198,-108,411,-157,2024-02-05 15:49:44.285,0.0
-3462,-5,195,-145,460,-170,2024-02-05 15:49:44.341,0.0
-3452,-23,151,-256,380,-160,2024-02-05 15:49:44.399,0.0
-3498,1,163,-491,389,-122,2024-02-05 15:49:44.457,0.0
-3462,-23,91,-616,219,-93,2024-02-05 15:49:44.508,0.0
-3415,-98,153,-475,208,-197,2024-02-05 15:49:44.572,0.0
-3492,-106,121,-195,378,-81,2024-02-05 15:49:44.621,0.0
-3461,-146,138,263,91,-73,2024-02-05 15:49:44.694,0.0
-3427,-44,212,801,-1347,-231,2024-02-05 15:49:44.736,0.0
-3487,10,169,768,-24,-296,2024-02-05 15:49:44.795,0.0
-3440,14,274,409,627,-319,2024-02-05 15:49:44.854,0.0
-3468,-14,121,62,238,-65,2024-02-05 15:49:44.911,0.0
-3372,-40,210,54,-380,-211,2024-02-05 15:49:44.962,0.0
-3373,-9,258,-64,134,-191,2024-02-05 15:49:45.028,0.0
-3510,-55,226,-353,261,-49,2024-02-05 15:49:45.079,0.0
-3401,-8,179,-814,-23,333,2024-02-05 15:49:45.137,0.0
-3291,-49,257,-766,369,295,2024-02-05 15:49:45.193,0.0
-3505,96,216,-538,662,-463,2024-02-05 15:49:45.250,0.0
-3474,-266,204,30,632,-765,2024-02-05 15:49:45.300,0.0
-3464,-38,155,-108,-153,226,2024-02-05 15:49:45.359,0.0
-3290,107,214,-660,-334,856,2024-02-05 15:49:45.416,0.0
-3431,116,163,-1034,594,-36,2024-02-05 15:49:45.473,0.0
-3481,-41,179,-745,683,-600,2024-02-05 15:49:45.531,0.0
-3553,-110,229,-284,411,-368,2024-02-05 15:49:45.590,0.0
-3463,-36,259,250,74,-11,2024-02-05 15:49:45.639,0.0
-3414,11,160,573,40,-175,2024-02-05 15:49:45.703,0.0
-3423,26,143,522,153,-288,2024-02-05 15:49:45.751,0.0
-3491,43,143,318,261,-221,2024-02-05 15:49:45.818,0.0
-3441,34,129,127,275,-127,2024-02-05 15:49:45.868,0.0
-3471,30,139,37,231,-190,2024-02-05 15:49:45.926,0.0
-3484,45,173,5,175,-219,2024-02-05 15:49:45.992,0.0
-3440,41,152,-118,109,-148,2024-02-05 15:49:46.038,0.0
-3436,31,147,-198,174,-147,2024-02-05 15:49:46.101,0.0
-3462,7,190,-242,176,-165,2024-02-05 15:49:46.151,0.0
-3461,26,160,-215,130,-177,2024-02-05 15:49:46.217,0.0
-3437,-29,165,-177,81,-134,2024-02-05 15:49:46.266,0.0
-3435,-3,176,-196,-60,-217,2024-02-05 15:49:46.333,0.0
-3405,10,162,-78,453,-29,2024-02-05 15:49:46.377,0.0
-3458,6,155,-125,142,-274,2024-02-05 15:49:46.433,0.0
-3340,-31,135,-63,398,-199,2024-02-05 15:49:46.493,0.0
-3387,5,170,-52,410,-180,2024-02-05 15:49:46.550,0.0
-3433,-5,179,-104,455,-179,2024-02-05 15:49:46.611,0.0
-3431,8,174,-65,570,-46,2024-02-05 15:49:46.662,0.0
-3469,32,147,-171,667,-69,2024-02-05 15:49:46.727,0.0
-3465,5,136,-214,648,-97,2024-02-05 15:49:46.777,0.0
-3470,28,108,-279,259,-126,2024-02-05 15:49:46.842,0.0
-3473,0,61,-181,545,-186,2024-02-05 15:49:46.893,0.0
-3507,25,112,-100,202,-193,2024-02-05 15:49:46.967,0.0
-3526,31,46,-72,16,-142,2024-02-05 15:49:47.008,0.0
-3439,11,87,-58,251,-92,2024-02-05 15:49:47.057,0.0
-3444,17,134,-45,301,-176,2024-02-05 15:49:47.123,0.0
-3441,20,98,-126,187,-169,2024-02-05 15:49:47.172,0.0
-3446,-11,122,-66,222,-172,2024-02-05 15:49:47.229,
