acceleration_x,acceleration_y,acceleration_z,gyroscope_x,gyroscope_y,gyroscope_z,timestamp,label
6556,-220,18076,-152,166,-202,2024-01-24 01:38:19,0.0
6576,-332,17908,-198,143,-174,2024-01-24 01:38:19,0.0
6548,-220,18112,-187,178,-162,2024-01-24 01:38:19,0.0
6544,-280,17896,-184,215,-190,2024-01-24 01:38:19,0.0
6476,-188,18124,-162,176,-189,2024-01-24 01:38:19,0.0
6544,-264,18200,-140,161,-173,2024-01-24 01:38:19,0.0
6476,-244,18132,-179,148,-172,2024-01-24 01:38:20,0.0
6564,-160,18196,-181,159,-189,2024-01-24 01:38:20,0.0
6440,-264,18164,-166,257,-176,2024-01-24 01:38:20,0.0
6440,-284,18104,-161,195,-172,2024-01-24 01:38:20,0.0
6504,-156,18148,-139,129,-173,2024-01-24 01:38:20,0.0
6544,-256,18100,-184,116,-161,2024-01-24 01:38:20,0.0
6596,-208,18292,-185,178,-173,2024-01-24 01:38:20,0.0
6524,-208,18156,-168,209,-167,2024-01-24 01:38:20,0.0
6404,-272,18156,-133,165,-158,2024-01-24 01:38:20,0.0
6736,-204,18276,-175,252,-175,2024-01-24 01:38:20,0.0
6836,-308,18088,-181,293,-221,2024-01-24 01:38:20,0.0
6520,-200,18112,-172,259,-186,2024-01-24 01:38:20,0.0
6456,-216,18152,-165,170,-177,2024-01-24 01:38:20,0.0
6520,-340,18184,-179,167,-172,2024-01-24 01:38:20,0.0
6524,-200,18100,-161,183,-202,2024-01-24 01:38:20,0.0
6604,-220,18044,-173,165,-180,2024-01-24 01:38:20,0.0
6564,-244,18120,-171,187,-173,2024-01-24 01:38:20,0.0
6624,-240,18124,-194,214,-169,2024-01-24 01:38:20,0.0
6476,-372,17908,-167,195,-169,2024-01-24 01:38:20,0.0
6484,-264,18076,-172,137,-185,2024-01-24 01:38:20,0.0
6440,-192,17976,-132,116,-164,2024-01-24 01:38:20,0.0
6492,-248,17996,-187,167,-193,2024-01-24 01:38:20,0.0
6544,-348,18084,-190,243,-187,2024-01-24 01:38:20,0.0
6648,-204,18120,-195,234,-188,2024-01-24 01:38:20,0.0
6600,-280,18056,-165,111,-187,2024-01-24 01:38:20,0.0
6524,-240,18028,-130,43,-186,2024-01-24 01:38:20,0.0
6484,-220,18172,-174,235,-200,2024-01-24 01:38:20,0.0
6524,-228,18048,-149,253,-162,2024-01-24 01:38:20,0.0
6352,-204,18164,-169,211,-182,2024-01-24 01:38:20,0.0
6448,-148,18264,-192,177,-168,2024-01-24 01:38:20,0.0
6360,-192,18208,-154,234,-145,2024-01-24 01:38:20,0.0
6456,-136,18176,-154,266,-160,2024-01-24 01:38:20,0.0
6624,-308,18240,-155,163,-184,2024-01-24 01:38:20,0.0
6484,-220,18116,-146,107,-181,2024-01-24 01:38:20,0.0
6636,-232,18016,-193,167,-178,2024-01-24 01:38:20,0.0
6732,-372,18232,-137,378,-209,2024-01-24 01:38:20,0.0
6540,-348,18144,-168,334,-226,2024-01-24 01:38:20,0.0
6428,-208,18324,-144,237,-164,2024-01-24 01:38:20,0.0
6296,-168,18040,-151,91,-154,2024-01-24 01:38:20,0.0
6524,-268,18204,-169,155,-176,2024-01-24 01:38:20,0.0
6436,-268,18104,-156,205,-185,2024-01-24 01:38:20,0.0
6456,-180,18084,-144,189,-166,2024-01-24 01:38:20,0.0
6572,-236,18112,-160,228,-164,2024-01-24 01:38:20,0.0
6544,-296,17976,-178,237,-195,2024-01-24 01:38:20,0.0
6460,-180,18264,-172,229,-152,2024-01-24 01:38:20,0.0
6460,-256,18168,-165,173,-144,2024-01-24 01:38:20,0.0
6492,-232,18184,-174,189,-185,2024-01-24 01:38:20,0.0
6496,-204,18168,-169,203,-202,2024-01-24 01:38:20,0.0
6468,-116,18168,-162,146,-179,2024-01-24 01:38:20,0.0
6536,-320,18144,-170,149,-168,2024-01-24 01:38:20,0.0
6532,-184,18152,-162,174,-159,2024-01-24 01:38:20,0.0
6388,-236,18144,-123,223,-175,2024-01-24 01:38:20,0.0
6424,-244,18232,-176,226,-158,2024-01-24 01:38:20,0.0
6464,-208,18180,-178,260,-168,2024-01-24 01:38:20,0.0
6436,-276,18304,-139,186,-162,2024-01-24 01:38:20,0.0
6424,-252,18196,-141,170,-154,2024-01-24 01:38:20,0.0
6368,-252,18116,-167,179,-172,2024-01-24 01:38:20,0.0
6484,-188,18188,-168,175,-170,2024-01-24 01:38:20,0.0
6532,-220,18132,-160,146,-171,2024-01-24 01:38:20,0.0
6524,-164,18112,-148,172,-179,2024-01-24 01:38:20,0.0
6656,-164,18056,-155,195,-170,2024-01-24 01:38:21,0.0
6380,-364,18228,-206,249,-172,2024-01-24 01:38:21,0.0
6468,-216,18156,-181,237,-168,2024-01-24 01:38:21,0.0
6412,-212,18132,-154,164,-170,2024-01-24 01:38:21,0.0
6460,-212,18176,-173,117,-166,2024-01-24 01:38:21,0.0
6416,-224,18176,-207,141,-176,2024-01-24 01:38:21,0.0
6584,-196,18136,-157,137,-165,2024-01-24 01:38:21,0.0
6600,-264,17920,-144,140,-183,2024-01-24 01:38:21,0.0
6568,-260,18024,-146,197,-183,2024-01-24 01:38:21,0.0
6400,-192,18004,-172,215,-183,2024-01-24 01:38:21,0.0
6456,-196,18016,-195,145,-169,2024-01-24 01:38:21,0.0
6564,-252,18148,-185,113,-192,2024-01-24 01:38:21,0.0
6512,-260,18028,-182,140,-211,2024-01-24 01:38:21,0.0
6448,-276,18004,-190,182,-180,2024-01-24 01:38:21,0.0
6552,-140,18148,-160,154,-157,2024-01-24 01:38:21,0.0
6432,-140,18080,-155,138,-164,2024-01-24 01:38:21,0.0
6460,-224,18096,-147,210,-166,2024-01-24 01:38:21,0.0
6552,-152,18188,-148,235,-169,2024-01-24 01:38:21,0.0
6424,-252,18120,-130,271,-196,2024-01-24 01:38:21,0.0
6380,-260,18088,-163,234,-196,2024-01-24 01:38:21,0.0
6396,-192,18352,-132,164,-169,2024-01-24 01:38:21,0.0
6396,-288,18156,-162,128,-177,2024-01-24 01:38:21,0.0
6536,-160,18272,-179,111,-184,2024-01-24 01:38:21,0.0
6656,-296,17904,-165,159,-179,2024-01-24 01:38:21,0.0
6424,-300,18092,-172,209,-194,2024-01-24 01:38:21,0.0
6652,-240,18096,-166,217,-184,2024-01-24 01:38:21,0.0
6516,-272,18052,-168,163,-180,2024-01-24 01:38:21,0.0
6512,-296,17956,-159,182,-204,2024-01-24 01:38:21,0.0
6536,-208,17852,-179,148,-204,2024-01-24 01:38:21,0.0
6556,-224,18044,-159,155,-181,2024-01-24 01:38:21,0.0
6456,-228,17992,-174,99,-173,2024-01-24 01:38:21,0.0
6612,-200,17940,-171,139,-181,2024-01-24 01:38:21,0.0
6596,-260,18068,-174,165,-195,2024-01-24 01:38:21,0.0
6520,-244,18144,-159,197,-156,2024-01-24 01:38:21,
6588,-288,17812,-168,219,-192,2024-01-24 01:38:21,0.0
6516,-364,18032,-179,174,-216,2024-01-24 01:38:21,0.0
6460,-376,17984,-194,173,-176,2024-01-24 01:38:21,0.0
6492,-256,18148,-173,186,-180,2024-01-24 01:38:21,0.0
6364,-384,18148,-180,159,-164,2024-01-24 01:38:21,0.0
6464,-284,18168,-163,151,-164,2024-01-24 01:38:21,0.0
6472,-220,17976,-165,187,-183,2024-01-24 01:38:21,0.0
6512,-252,18188,-163,230,-179,2024-01-24 01:38:21,0.0
6580,-208,17916,-147,237,-191,2024-01-24 01:38:21,0.0
6468,-204,18192,-173,220,-168,2024-01-24 01:38:21,0.0
6484,-212,18320,-168,205,-174,2024-01-24 01:38:21,0.0
6448,-320,17976,-172,159,-158,2024-01-24 01:38:21,0.0
6368,-216,18260,-162,163,-168,2024-01-24 01:38:21,0.0
6488,-256,18056,-150,185,-207,2024-01-24 01:38:21,0.0
6416,-160,17948,-192,162,-175,2024-01-24 01:38:21,0.0
6588,-292,18112,-180,175,-190,2024-01-24 01:38:21,0.0
6584,-248,18076,-159,167,-180,2024-01-24 01:38:21,0.0
6572,-228,18020,-150,225,-172,2024-01-24 01:38:21,0.0
6472,-292,18036,-171,150,-171,2024-01-24 01:38:21,0.0
6512,-208,18084,-166,196,-173,2024-01-24 01:38:21,0.0
6468,-228,18172,-189,163,-178,2024-01-24 01:38:21,0.0
6452,-180,18156,-127,140,-177,2024-01-24 01:38:21,0.0
6500,-244,18084,-150,168,-180,2024-01-24 01:38:21,0.0
6472,-224,18120,-177,220,-189,2024-01-24 01:38:21,0.0
6524,-276,17948,-175,201,-176,2024-01-24 01:38:21,0.0
6520,-224,18208,-195,198,-186,2024-01-24 01:38:22,0.0
6452,-348,18008,-165,184,-162,2024-01-24 01:38:22,0.0
6496,-324,18008,-194,160,-196,2024-01-24 01:38:22,0.0
6564,-224,17948,-193,173,-192,2024-01-24 01:38:22,0.0
6524,-176,18160,-190,128,-145,2024-01-24 01:38:22,0.0
6588,-316,18108,-161,139,-176,2024-01-24 01:38:22,0.0
6528,-192,18160,-178,167,-175,2024-01-24 01:38:22,0.0
6460,-192,18000,-157,240,-165,2024-01-24 01:38:22,0.0
6412,-268,18168,-184,272,-176,2024-01-24 01:38:22,0.0
6504,-272,18268,-150,247,-182,2024-01-24 01:38:22,0.0
6440,-324,18160,-181,185,-173,2024-01-24 01:38:22,0.0
6488,-148,18232,-175,175,-158,2024-01-24 01:38:22,0.0
6960,-512,18096,-149,282,-220,2024-01-24 01:38:22,0.0
6816,-384,17884,-169,264,-231,2024-01-24 01:38:22,0.0
6440,-48,17860,-175,165,-200,2024-01-24 01:38:22,0.0
6448,-188,17924,-167,89,-186,2024-01-24 01:38:22,0.0
6604,-304,18176,-163,245,-202,2024-01-24 01:38:22,0.0
6384,-316,18040,-175,259,-190,2024-01-24 01:38:22,0.0
6360,-132,17972,-189,164,-175,2024-01-24 01:38:22,0.0
6536,-336,18032,-190,52,-182,2024-01-24 01:38:22,0.0
6308,-248,18108,-158,152,-191,2024-01-24 01:38:22,0.0
6472,-268,18096,-185,199,-167,2024-01-24 01:38:22,0.0
6600,-212,18400,-162,237,-185,2024-01-24 01:38:22,0.0
6472,-152,18084,-158,220,-191,2024-01-24 01:38:22,0.0
6384,-188,18036,-180,191,-161,2024-01-24 01:38:22,0.0
6496,-256,18104,-162,236,-164,2024-01-24 01:38:22,0.0
6444,-176,18200,-159,232,-173,2024-01-24 01:38:22,0.0
6464,-168,18260,-166,198,-174,2024-01-24 01:38:22,0.0
6520,-200,18220,-174,108,-156,2024-01-24 01:38:22,0.0
6584,-248,18060,-182,161,-194,2024-01-24 01:38:22,0.0
6444,-188,17968,-138,215,-189,2024-01-24 01:38:22,0.0
6512,-240,18108,-151,210,-168,2024-01-24 01:38:22,0.0
6752,-140,18140,-201,266,-157,2024-01-24 01:38:22,0.0
7028,-468,18064,-138,383,-220,2024-01-24 01:38:22,0.0
6580,-240,18060,-164,245,-212,2024-01-24 01:38:22,0.0
6432,-268,18020,-216,4,-191,2024-01-24 01:38:22,0.0
6592,-200,18196,-153,114,-186,2024-01-24 01:38:22,0.0
6556,-276,17912,-207,218,-176,2024-01-24 01:38:22,0.0
6508,-200,18008,-161,273,-151,2024-01-24 01:38:22,0.0
6520,-264,18144,-165,211,-188,2024-01-24 01:38:22,0.0
6456,-212,18164,-159,182,-182,2024-01-24 01:38:22,0.0
6364,-216,17992,-197,193,-163,2024-01-24 01:38:22,0.0
6456,-232,18128,-174,228,-168,2024-01-24 01:38:22,0.0
6480,-132,18172,-181,212,-200,2024-01-24 01:38:22,0.0
6516,-244,18196,-181,87,-166,2024-01-24 01:38:22,0.0
6580,-332,18084,-176,132,-171,2024-01-24 01:38:22,0.0
6544,-220,18040,-179,193,-158,2024-01-24 01:38:22,0.0
6532,-288,18112,-179,212,-159,2024-01-24 01:38:22,0.0
6520,-228,18040,-190,158,-175,2024-01-24 01:38:22,0.0
6484,-288,18240,-166,195,-180,2024-01-24 01:38:22,0.0
6472,-176,18200,-159,228,-176,2024-01-24 01:38:22,0.0
6348,-152,18172,-192,260,-187,2024-01-24 01:38:22,0.0
6500,-228,18220,-145,150,-199,2024-01-24 01:38:22,0.0
6432,-232,18076,-174,78,-186,2024-01-24 01:38:22,0.0
6496,-220,17956,-159,118,-164,2024-01-24 01:38:22,0.0
6436,-204,18164,-169,176,-145,2024-01-24 01:38:22,0.0
6612,-208,18252,-172,216,-172,2024-01-24 01:38:22,0.0
6676,-324,18284,-164,267,-186,2024-01-24 01:38:23,0.0
6396,-180,18132,-193,279,-176,2024-01-24 01:38:23,0.0
6336,-164,18248,-160,234,-162,2024-01-24 01:38:23,0.0
6436,-220,18064,-182,140,-152,2024-01-24 01:38:23,0.0
6496,-304,18052,-181,151,-179,2024-01-24 01:38:23,0.0
6520,-328,18080,-172,212,-177,2024-01-24 01:38:23,0.0
6508,-272,18164,-180,193,-193,2024-01-24 01:38:23,0.0
6444,-268,18276,-154,171,-192,2024-01-24 01:38:23,0.0
6544,-272,18132,-173,162,-165,2024-01-24 01:38:23,0.0
6468,-252,17984,-178,220,-185,2024-01-24 01:38:23,0.0
6472,-204,18008,-170,207,-170,2024-01-24 01:38:23,0.0
6468,-304,17996,-190,181,-199,2024-01-24 01:38:23,0.0
6476,-268,18264,-171,162,-174,2024-01-24 01:38:23,0.0
6688,-236,18204,-132,147,-194,2024-01-24 01:38:23,0.0
6484,-272,18076,-195,201,-172,2024-01-24 01:38:23,0.0
6356,-208,18048,-179,250,-156,2024-01-24 01:38:23,0.0
6456,-240,17984,-187,289,-155,2024-01-24 01:38:23,0.0
6608,-264,17912,-181,205,-185,2024-01-24 01:38:23,
6504,-364,18132,-167,141,-173,2024-01-24 01:38:23,0.0
6508,-320,18204,-163,154,-181,2024-01-24 01:38:23,0.0
6520,-288,18124,-171,210,-186,2024-01-24 01:38:23,0.0
6468,-216,18272,-162,208,-185,2024-01-24 01:38:23,0.0
6448,-240,18072,-170,129,-192,2024-01-24 01:38:23,0.0
6656,-300,18108,-190,122,-169,2024-01-24 01:38:23,0.0
6488,-208,18120,-172,175,-168,2024-01-24 01:38:23,0.0
6464,-324,18176,-150,267,-195,2024-01-24 01:38:23,0.0
6452,-316,17972,-162,183,-176,2024-01-24 01:38:23,0.0
6452,-260,17868,-194,181,-173,2024-01-24 01:38:23,0.0
6376,-212,18068,-154,213,-179,2024-01-24 01:38:23,0.0
6432,-288,18184,-178,161,-156,2024-01-24 01:38:23,0.0
6464,-296,18288,-177,194,-185,2024-01-24 01:38:23,0.0
6480,-276,18084,-186,195,-176,2024-01-24 01:38:23,0.0
6512,-196,18192,-145,232,-197,2024-01-24 01:38:23,0.0
6384,-332,18128,-206,238,-168,2024-01-24 01:38:23,0.0
6404,-240,18168,-165,218,-181,2024-01-24 01:38:23,0.0
6372,-168,18104,-168,194,-165,2024-01-24 01:38:23,0.0
6456,-208,18184,-183,182,-165,2024-01-24 01:38:23,0.0
6488,-160,18044,-171,130,-177,2024-01-24 01:38:23,0.0
6432,-324,18064,-163,134,-180,2024-01-24 01:38:23,0.0
6452,-280,18136,-145,158,-164,2024-01-24 01:38:23,0.0
6460,-208,18176,-147,189,-185,2024-01-24 01:38:23,0.0
6524,-220,18100,-175,219,-167,2024-01-24 01:38:23,0.0
6424,-220,18368,-176,221,-159,2024-01-24 01:38:23,0.0
6492,-212,18000,-159,170,-165,2024-01-24 01:38:23,0.0
6552,-244,18180,-159,194,-180,2024-01-24 01:38:23,0.0
6504,-280,18040,-151,208,-181,2024-01-24 01:38:23,0.0
6460,-224,18300,-162,177,-173,2024-01-24 01:38:23,0.0
6464,-204,18056,-161,156,-178,2024-01-24 01:38:23,0.0
6476,-236,18076,-158,188,-166,2024-01-24 01:38:23,0.0
6408,-224,18244,-167,241,-168,2024-01-24 01:38:23,0.0
6460,-324,18088,-162,220,-186,2024-01-24 01:38:23,0.0
6488,-260,18036,-164,172,-180,2024-01-24 01:38:23,0.0
6580,-328,18068,-170,156,-198,2024-01-24 01:38:23,0.0
6560,-384,18052,-159,143,-180,2024-01-24 01:38:23,0.0
6524,-100,18120,-158,159,-188,2024-01-24 01:38:23,0.0
6520,-264,18084,-182,151,-178,2024-01-24 01:38:23,0.0
6532,-312,18168,-154,189,-191,2024-01-24 01:38:23,0.0
6380,-212,18172,-141,243,-176,2024-01-24 01:38:23,0.0
6396,-224,18044,-173,218,-181,2024-01-24 01:38:23,0.0
6492,-248,18020,-168,169,-176,2024-01-24 01:38:23,0.0
6516,-152,18172,-177,154,-171,2024-01-24 01:38:24,0.0
6508,-168,18096,-173,193,-167,2024-01-24 01:38:24,0.0
6408,-280,18112,-160,186,-162,2024-01-24 01:38:24,0.0
6544,-192,18064,-165,212,-145,2024-01-24 01:38:24,0.0
6500,-192,18264,-159,219,-184,2024-01-24 01:38:24,0.0
6460,-168,18208,-176,205,-171,2024-01-24 01:38:24,0.0
6556,-320,18080,-160,201,-171,2024-01-24 01:38:24,0.0
6496,-284,18264,-155,159,-166,2024-01-24 01:38:24,0.0
6408,-268,18172,-169,210,-171,2024-01-24 01:38:24,0.0
6396,-176,18292,-160,174,-152,2024-01-24 01:38:24,0.0
6452,-232,18264,-186,190,-196,2024-01-24 01:38:24,0.0
6448,-256,18164,-193,179,-176,2024-01-24 01:38:24,0.0
6540,-196,18060,-173,167,-178,2024-01-24 01:38:24,0.0
6424,-284,18188,-157,205,-175,2024-01-24 01:38:24,0.0
6408,-264,18196,-183,244,-166,2024-01-24 01:38:24,0.0
6412,-192,18164,-150,240,-152,2024-01-24 01:38:24,0.0
6372,-276,18388,-158,207,-176,2024-01-24 01:38:24,0.0
6468,-280,18120,-184,177,-162,2024-01-24 01:38:24,0.0
6412,-296,18204,-155,163,-185,2024-01-24 01:38:24,0.0
6504,-180,18076,-153,176,-163,2024-01-24 01:38:24,0.0
6416,-272,18148,-195,196,-190,2024-01-24 01:38:24,0.0
6460,-156,18128,-164,216,-179,2024-01-24 01:38:24,0.0
6548,-284,18132,-157,198,-180,2024-01-24 01:38:24,0.0
6564,-212,18284,-180,186,-183,2024-01-24 01:38:24,0.0
6520,-208,17988,-173,147,-202,2024-01-24 01:38:24,0.0
6616,-340,18096,-193,189,-209,2024-01-24 01:38:24,0.0
6492,-292,17980,-191,148,-198,2024-01-24 01:38:24,0.0
6752,-336,18180,-185,150,-193,2024-01-24 01:38:24,0.0
6452,-256,18104,-162,158,-192,2024-01-24 01:38:24,0.0
6544,-292,18140,-194,163,-176,2024-01-24 01:38:24,0.0
6528,-316,18192,-196,216,-179,2024-01-24 01:38:24,0.0
6424,-328,18180,-161,258,-191,2024-01-24 01:38:24,0.0
6512,-304,18152,-164,182,-192,2024-01-24 01:38:24,0.0
6564,-280,17976,-189,130,-196,2024-01-24 01:38:24,0.0
6464,-184,18168,-185,148,-174,2024-01-24 01:38:24,0.0
6488,-264,18176,-163,189,-172,2024-01-24 01:38:24,0.0
6520,-256,17996,-176,190,-181,2024-01-24 01:38:24,0.0
6508,-280,18084,-171,160,-194,2024-01-24 01:38:24,0.0
6668,-312,18168,-165,175,-220,2024-01-24 01:38:24,0.0
6456,-244,18204,-159,172,-190,2024-01-24 01:38:24,0.0
6448,-192,18004,-168,221,-176,2024-01-24 01:38:24,0.0
6564,-312,17872,-178,176,-204,2024-01-24 01:38:24,0.0
6576,-256,17988,-193,155,-204,2024-01-24 01:38:24,0.0
6656,-328,18160,-201,147,-188,2024-01-24 01:38:24,0.0
6596,-332,18024,-142,144,-197,2024-01-24 01:38:24,0.0
6492,-296,18032,-204,182,-180,2024-01-24 01:38:24,0.0
6600,-304,17812,-169,203,-189,2024-01-24 01:38:24,0.0
6540,-288,18064,-156,240,-180,2024-01-24 01:38:24,0.0
6592,-308,18052,-186,196,-175,2024-01-24 01:38:24,0.0
6568,-316,18016,-174,136,-189,2024-01-24 01:38:24,0.0
6588,-300,18156,-169,147,-198,2024-01-24 01:38:24,0.0
6456,-284,18176,-160,169,-181,2024-01-24 01:38:24,0.0
6444,-328,18012,-183,192,-168,2024-01-24 01:38:24,0.0
6500,-356,18040,-180,174,-160,2024-01-24 01:38:24,0.0
6496,-204,18232,-170,189,-182,2024-01-24 01:38:24,0.0
6496,-244,18148,-152,229,-159,2024-01-24 01:38:24,0.0
6488,-232,17976,-165,204,-179,2024-01-24 01:38:24,0.0
6484,-200,18108,-171,167,-187,2024-01-24 01:38:24,
6652,-260,18316,-142,296,-192,2024-01-24 01:38:24,0.0
6412,-196,18104,-158,238,-199,2024-01-24 01:38:25,0.0
6300,-104,18056,-152,219,-177,2024-01-24 01:38:25,0.0
6384,-216,18220,-176,149,-185,2024-01-24 01:38:25,0.0
6416,-276,18160,-148,189,-150,2024-01-24 01:38:25,0.0
6468,-220,17996,-169,167,-192,2024-01-24 01:38:25,0.0
6500,-232,18108,-164,235,-142,2024-01-24 01:38:25,0.0
6400,-304,18104,-185,210,-161,2024-01-24 01:38:25,0.0
6556,-136,18132,-163,213,-176,2024-01-24 01:38:25,0.0
6536,-272,18124,-177,142,-175,2024-01-24 01:38:25,0.0
6428,-324,18088,-180,168,-183,2024-01-24 01:38:25,0.0
6424,-304,18196,-152,164,-189,2024-01-24 01:38:25,0.0
6436,-196,18056,-169,198,-162,2024-01-24 01:38:25,0.0
6416,-368,18124,-189,218,-206,2024-01-24 01:38:25,0.0
6500,-300,18008,-160,170,-174,2024-01-24 01:38:25,0.0
6564,-244,18256,-203,143,-198,2024-01-24 01:38:25,0.0
6516,-216,17988,-186,133,-178,2024-01-24 01:38:25,0.0
6516,-288,17980,-158,194,-178,2024-01-24 01:38:25,0.0
6432,-216,18140,-158,187,-208,2024-01-24 01:38:25,0.0
6556,-248,18024,-169,158,-198,2024-01-24 01:38:25,0.0
6472,-280,18040,-188,128,-178,2024-01-24 01:38:25,0.0
6556,-252,18172,-165,144,-180,2024-01-24 01:38:25,0.0
6676,-372,18204,-190,252,-187,2024-01-24 01:38:25,0.0
6436,-200,18140,-127,238,-164,2024-01-24 01:38:25,0.0
6320,-224,18208,-159,200,-172,2024-01-24 01:38:25,0.0
6456,-156,18104,-160,168,-162,2024-01-24 01:38:25,0.0
6536,-168,18168,-153,173,-176,2024-01-24 01:38:25,0.0
6440,-184,18136,-181,236,-147,2024-01-24 01:38:25,0.0
6452,-232,18120,-151,244,-177,2024-01-24 01:38:25,0.0
6400,-244,18184,-160,190,-150,2024-01-24 01:38:25,0.0
6532,-288,18200,-169,160,-166,2024-01-24 01:38:25,0.0
6448,-220,18128,-167,171,-187,2024-01-24 01:38:25,0.0
6480,-188,18292,-151,212,-185,2024-01-24 01:38:25,0.0
6440,-220,18232,-133,193,-187,2024-01-24 01:38:25,0.0
6456,-196,18252,-181,210,-174,2024-01-24 01:38:25,0.0
6516,-224,18052,-156,171,-164,2024-01-24 01:38:25,0.0
6536,-236,18008,-153,134,-178,2024-01-24 01:38:25,0.0
6476,-312,18056,-161,134,-176,2024-01-24 01:38:25,0.0
6668,-228,18028,-175,148,-175,2024-01-24 01:38:25,0.0
6560,-216,18156,-161,176,-208,2024-01-24 01:38:25,0.0
6524,-220,17996,-177,185,-195,2024-01-24 01:38:25,0.0
6584,-272,18152,-169,139,-170,2024-01-24 01:38:25,0.0
6588,-288,18136,-174,146,-198,2024-01-24 01:38:25,0.0
6576,-156,18028,-166,169,-163,2024-01-24 01:38:25,0.0
6352,-152,18272,-178,246,-145,2024-01-24 01:38:25,0.0
6416,-240,18204,-162,173,-174,2024-01-24 01:38:25,0.0
6564,-360,18004,-184,103,-168,2024-01-24 01:38:25,0.0
6548,-308,18240,-186,133,-181,2024-01-24 01:38:25,0.0
6572,-288,18084,-127,227,-160,2024-01-24 01:38:25,0.0
6492,-144,18136,-191,219,-173,2024-01-24 01:38:25,0.0
6456,-292,18232,-165,149,-203,2024-01-24 01:38:25,0.0
6356,-264,18028,-172,63,-186,2024-01-24 01:38:25,0.0
6472,-212,18220,-154,175,-196,2024-01-24 01:38:25,0.0
6520,-260,18156,-177,238,-179,2024-01-24 01:38:25,0.0
6456,-244,17988,-177,212,-199,2024-01-24 01:38:25,0.0
6468,-292,18112,-161,163,-163,2024-01-24 01:38:25,0.0
6440,-304,18248,-150,162,-170,2024-01-24 01:38:25,0.0
6432,-316,18320,-152,201,-175,2024-01-24 01:38:25,0.0
6464,-348,18220,-156,240,-162,2024-01-24 01:38:25,0.0
6448,-200,18272,-163,191,-199,2024-01-24 01:38:25,0.0
6484,-256,18100,-155,170,-172,2024-01-24 01:38:26,0.0
6316,-164,18204,-135,207,-185,2024-01-24 01:38:26,0.0
6604,-276,18116,-193,162,-201,2024-01-24 01:38:26,0.0
6528,-344,18004,-193,136,-190,2024-01-24 01:38:26,0.0
6544,-268,18076,-172,176,-185,2024-01-24 01:38:26,0.0
6588,-276,17888,-157,150,-197,2024-01-24 01:38:26,0.0
6596,-208,18096,-159,200,-172,2024-01-24 01:38:26,0.0
6428,-260,18076,-167,210,-160,2024-01-24 01:38:26,0.0
6504,-300,18012,-168,193,-189,2024-01-24 01:38:26,0.0
6472,-288,18000,-195,168,-176,2024-01-24 01:38:26,0.0
6456,-268,18148,-167,157,-174,2024-01-24 01:38:26,0.0
6476,-256,18084,-129,182,-184,2024-01-24 01:38:26,0.0
6472,-200,18176,-152,193,-170,2024-01-24 01:38:26,0.0
6384,-340,18236,-128,241,-173,2024-01-24 01:38:26,0.0
6416,-216,18096,-133,231,-149,2024-01-24 01:38:26,0.0
6448,-168,18168,-167,174,-167,2024-01-24 01:38:26,0.0
6352,-140,18232,-154,163,-171,2024-01-24 01:38:26,0.0
6512,-224,18212,-137,188,-165,2024-01-24 01:38:26,0.0
6500,-228,18092,-173,195,-177,2024-01-24 01:38:26,0.0
6536,-284,18172,-147,153,-186,2024-01-24 01:38:26,0.0
6476,-300,17932,-175,140,-185,2024-01-24 01:38:26,0.0
6388,-188,18084,-135,148,-174,2024-01-24 01:38:26,0.0
6620,-168,17924,-178,186,-196,2024-01-24 01:38:26,0.0
6448,-368,18112,-177,211,-202,2024-01-24 01:38:26,0.0
6552,-296,17976,-187,177,-207,2024-01-24 01:38:26,0.0
6584,-304,17956,-199,164,-182,2024-01-24 01:38:26,0.0
6516,-232,18284,-185,182,-185,2024-01-24 01:38:26,0.0
6468,-136,18128,-173,196,-185,2024-01-24 01:38:26,0.0
6560,-344,18204,-167,177,-185,2024-01-24 01:38:26,0.0
6396,-300,18148,-153,182,-178,2024-01-24 01:38:26,0.0
6352,-228,18224,-169,200,-161,2024-01-24 01:38:26,0.0
6412,-264,18152,-169,163,-171,2024-01-24 01:38:26,0.0
6448,-196,18184,-192,209,-173,2024-01-24 01:38:26,0.0
6472,-192,18072,-163,216,-177,2024-01-24 01:38:26,0.0
6412,-300,18200,-167,269,-192,2024-01-24 01:38:26,0.0
6536,-168,18116,-159,173,-143,2024-01-24 01:38:26,0.0
6404,-272,18128,-148,180,-177,2024-01-24 01:38:26,0.0
6568,-296,18016,-146,183,-177,2024-01-24 01:38:26,0.0
6436,-244,18228,-182,203,-169,2024-01-24 01:38:26,0.0
6488,-188,18204,-187,227,-163,2024-01-24 01:38:26,
6452,-224,18156,-177,180,-175,2024-01-24 01:38:26,0.0
6520,-260,18216,-153,189,-159,2024-01-24 01:38:26,0.0
6548,-276,18160,-180,153,-182,2024-01-24 01:38:26,0.0
6528,-252,17912,-197,196,-192,2024-01-24 01:38:26,0.0
6492,-312,18116,-147,187,-197,2024-01-24 01:38:26,0.0
6580,-236,18196,-163,171,-171,2024-01-24 01:38:26,0.0
6504,-248,18196,-162,190,-144,2024-01-24 01:38:26,0.0
6544,-332,18056,-179,165,-179,2024-01-24 01:38:26,0.0
6556,-256,18028,-174,194,-179,2024-01-24 01:38:26,0.0
6544,-236,18096,-200,181,-184,2024-01-24 01:38:26,0.0
6600,-324,18048,-172,184,-204,2024-01-24 01:38:26,0.0
6492,-240,18068,-173,176,-180,2024-01-24 01:38:26,0.0
6472,-220,18148,-144,196,-179,2024-01-24 01:38:26,0.0
6436,-296,18300,-191,199,-162,2024-01-24 01:38:26,0.0
6452,-216,18096,-168,225,-174,2024-01-24 01:38:26,0.0
6396,-392,18168,-153,184,-173,2024-01-24 01:38:26,0.0
6432,-204,18020,-165,182,-166,2024-01-24 01:38:26,0.0
6408,-236,18232,-153,201,-141,2024-01-24 01:38:26,0.0
6384,-256,18140,-143,187,-168,2024-01-24 01:38:26,0.0
6492,-280,18104,-144,203,-170,2024-01-24 01:38:27,0.0
6556,-224,18196,-162,176,-185,2024-01-24 01:38:27,0.0
6500,-184,18204,-145,196,-185,2024-01-24 01:38:27,0.0
6444,-208,18220,-163,176,-165,2024-01-24 01:38:27,0.0
6468,-208,17992,-186,198,-170,2024-01-24 01:38:27,0.0
6448,-172,18100,-146,221,-167,2024-01-24 01:38:27,0.0
6520,-344,17988,-170,155,-176,2024-01-24 01:38:27,0.0
6500,-252,18088,-182,154,-170,2024-01-24 01:38:27,0.0
6548,-244,18164,-185,168,-201,2024-01-24 01:38:27,0.0
6460,-396,18108,-173,196,-180,2024-01-24 01:38:27,0.0
6524,-252,18008,-157,174,-214,2024-01-24 01:38:27,0.0
6544,-308,18056,-169,138,-183,2024-01-24 01:38:27,0.0
6520,-224,18032,-188,130,-179,2024-01-24 01:38:27,0.0
6544,-316,18008,-183,196,-193,2024-01-24 01:38:27,0.0
6448,-200,18172,-183,184,-187,2024-01-24 01:38:27,0.0
6496,-168,18076,-165,177,-187,2024-01-24 01:38:27,0.0
6552,-280,18136,-198,197,-150,2024-01-24 01:38:27,0.0
6544,-252,17956,-179,167,-181,2024-01-24 01:38:27,0.0
6628,-216,17956,-147,156,-187,2024-01-24 01:38:27,0.0
6416,-256,18228,-168,187,-185,2024-01-24 01:38:27,0.0
6580,-232,18044,-182,159,-191,2024-01-24 01:38:27,0.0
6588,-208,17988,-188,186,-187,2024-01-24 01:38:27,0.0
6536,-296,18012,-163,178,-208,2024-01-24 01:38:27,0.0
6536,-216,18236,-189,194,-168,2024-01-24 01:38:27,0.0
6580,-288,18112,-153,151,-196,2024-01-24 01:38:27,0.0
6444,-212,18084,-179,184,-167,2024-01-24 01:38:27,0.0
6456,-172,18060,-193,186,-161,2024-01-24 01:38:27,0.0
6388,-392,18032,-206,143,-203,2024-01-24 01:38:27,0.0
6452,-332,18068,-173,136,-158,2024-01-24 01:38:27,0.0
6492,-300,18020,-184,164,-175,2024-01-24 01:38:27,0.0
6632,-232,18068,-165,236,-198,2024-01-24 01:38:27,0.0
6640,-288,17928,-154,241,-218,2024-01-24 01:38:27,0.0
6424,-228,17976,-190,183,-204,2024-01-24 01:38:27,0.0
6564,-324,17976,-182,129,-184,2024-01-24 01:38:27,0.0
6444,-328,18112,-178,245,-157,2024-01-24 01:38:27,0.0
6492,-248,18184,-171,247,-190,2024-01-24 01:38:27,0.0
6336,-204,18012,-161,143,-163,2024-01-24 01:38:27,0.0
6432,-120,18196,-184,161,-178,2024-01-24 01:38:27,0.0
6424,-112,18188,-146,202,-170,2024-01-24 01:38:27,0.0
6464,-236,18152,-147,215,-161,2024-01-24 01:38:27,0.0
6580,-300,18200,-177,250,-174,2024-01-24 01:38:27,0.0
6400,-280,18160,-163,186,-177,2024-01-24 01:38:27,0.0
6384,-172,18280,-147,183,-169,2024-01-24 01:38:27,0.0
6324,-100,18188,-167,227,-155,2024-01-24 01:38:27,0.0
6320,-84,18144,-179,224,-174,2024-01-24 01:38:27,0.0
6424,-236,18384,-134,206,-178,2024-01-24 01:38:27,0.0
6428,-212,18184,-150,153,-176,2024-01-24 01:38:27,0.0
6380,-156,18056,-170,144,-155,2024-01-24 01:38:27,0.0
6500,-212,18224,-179,208,-163,2024-01-24 01:38:27,0.0
6536,-160,18300,-145,308,-156,2024-01-24 01:38:27,0.0
6504,-188,18104,-138,255,-148,2024-01-24 01:38:27,0.0
6496,-240,17924,-154,185,-156,2024-01-24 01:38:27,0.0
6312,-264,18200,-141,125,-183,2024-01-24 01:38:27,0.0
6388,-264,18068,-201,159,-148,2024-01-24 01:38:27,0.0
6484,-156,18252,-147,204,-181,2024-01-24 01:38:27,0.0
6448,-328,18084,-175,161,-180,2024-01-24 01:38:27,0.0
6588,-304,18076,-140,147,-164,2024-01-24 01:38:27,0.0
6540,-192,18212,-192,199,-149,2024-01-24 01:38:27,0.0
6588,-252,18032,-184,191,-213,2024-01-24 01:38:27,0.0
6528,-316,18172,-178,167,-192,2024-01-24 01:38:28,0.0
6500,-356,17992,-162,110,-184,2024-01-24 01:38:28,0.0
6628,-244,17896,-185,142,-181,2024-01-24 01:38:28,0.0
6472,-364,18052,-168,170,-211,2024-01-24 01:38:28,0.0
6416,-272,18120,-160,170,-190,2024-01-24 01:38:28,0.0
6544,-252,18224,-163,176,-152,2024-01-24 01:38:28,0.0
6460,-172,18268,-146,228,-159,2024-01-24 01:38:28,0.0
6460,-188,18432,-90,379,-218,2024-01-24 01:38:28,0.0
6156,-144,17740,-228,99,-137,2024-01-24 01:38:28,0.0
6640,-372,18052,-177,158,-183,2024-01-24 01:38:28,0.0
6520,-416,18112,-167,63,-187,2024-01-24 01:38:28,0.0
6432,-196,18032,-174,128,-177,2024-01-24 01:38:28,0.0
6680,-364,18212,-154,274,-205,2024-01-24 01:38:28,0.0
6420,-252,18208,-159,227,-181,2024-01-24 01:38:28,0.0
6476,-220,18028,-170,151,-145,2024-01-24 01:38:28,0.0
6528,-260,18124,-148,228,-182,2024-01-24 01:38:28,0.0
6400,-152,18328,-151,284,-153,2024-01-24 01:38:28,0.0
6288,-212,18160,-157,251,-166,2024-01-24 01:38:28,0.0
6388,-288,18108,-189,207,-174,2024-01-24 01:38:28,0.0
6576,-208,18264,-146,150,-163,2024-01-24 01:38:28,0.0
6440,-256,18080,-163,158,-172,2024-01-24 01:38:28,0.0
6424,-288,18232,-148,132,-177,2024-01-24 01:38:28,
6468,-252,17980,-181,123,-167,2024-01-24 01:38:28,0.0
6460,-252,18184,-159,17,-163,2024-01-24 01:38:28,0.0
5848,-148,17708,-194,218,-155,2024-01-24 01:38:28,0.0
5756,4,17772,-207,234,-155,2024-01-24 01:38:28,0.0
6232,-184,18132,-192,174,-162,2024-01-24 01:38:28,0.0
6440,-280,18288,-161,37,-172,2024-01-24 01:38:28,0.0
6396,-232,18192,-166,69,-156,2024-01-24 01:38:28,0.0
6552,-208,18172,-173,183,-149,2024-01-24 01:38:28,0.0
6568,-284,17952,-187,250,-187,2024-01-24 01:38:28,0.0
6528,-268,17956,-178,194,-174,2024-01-24 01:38:28,0.0
6616,-236,18040,-191,241,-182,2024-01-24 01:38:28,0.0
6592,-292,18092,-161,244,-170,2024-01-24 01:38:28,0.0
6564,-224,18112,-179,179,-203,2024-01-24 01:38:28,0.0
6548,-264,17948,-173,104,-182,2024-01-24 01:38:28,0.0
6560,-280,18020,-188,106,-191,2024-01-24 01:38:28,0.0
6532,-276,18080,-141,159,-177,2024-01-24 01:38:28,0.0
6564,-292,17992,-173,173,-199,2024-01-24 01:38:28,0.0
6468,-312,18056,-141,163,-179,2024-01-24 01:38:28,0.0
6476,-312,18060,-170,178,-177,2024-01-24 01:38:28,0.0
6564,-276,18032,-133,235,-177,2024-01-24 01:38:28,0.0
6500,-308,18068,-144,254,-188,2024-01-24 01:38:28,0.0
6432,-236,18188,-199,233,-174,2024-01-24 01:38:28,0.0
6504,-256,18096,-208,113,-181,2024-01-24 01:38:28,0.0
6424,-192,18224,-178,101,-177,2024-01-24 01:38:28,0.0
6520,-320,18116,-195,123,-162,2024-01-24 01:38:28,0.0
6488,-304,18192,-176,186,-156,2024-01-24 01:38:28,0.0
6524,-300,18112,-168,244,-183,2024-01-24 01:38:28,0.0
6676,-232,18012,-177,290,-186,2024-01-24 01:38:28,0.0
6424,-260,18108,-168,295,-216,2024-01-24 01:38:28,0.0
6328,-236,18284,-186,207,-165,2024-01-24 01:38:28,0.0
6384,-240,18312,-180,143,-180,2024-01-24 01:38:28,0.0
6444,-256,18068,-170,102,-163,2024-01-24 01:38:28,0.0
6468,-248,18104,-177,114,-179,2024-01-24 01:38:28,0.0
6520,-244,18100,-172,192,-210,2024-01-24 01:38:28,0.0
6568,-236,18020,-145,226,-171,2024-01-24 01:38:28,0.0
6364,-144,17964,-149,317,-176,2024-01-24 01:38:28,0.0
6404,-264,18204,-137,308,-165,2024-01-24 01:38:28,0.0
6440,-228,18176,-160,208,-168,2024-01-24 01:38:29,0.0
6420,-252,18164,-164,129,-164,2024-01-24 01:38:29,0.0
6464,-284,18084,-154,98,-160,2024-01-24 01:38:29,0.0
6544,-232,18152,-153,110,-185,2024-01-24 01:38:29,0.0
6552,-288,18216,-183,207,-159,2024-01-24 01:38:29,0.0
6056,-260,17776,-163,196,-190,2024-01-24 01:38:29,0.0
5920,-196,17780,-216,184,-176,2024-01-24 01:38:29,0.0
6320,-176,18092,-210,152,-174,2024-01-24 01:38:29,0.0
6600,-228,18000,-181,88,-182,2024-01-24 01:38:29,0.0
6432,-228,18096,-187,100,-185,2024-01-24 01:38:29,0.0
6492,-276,18116,-196,136,-203,2024-01-24 01:38:29,0.0
6636,-336,18052,-194,171,-180,2024-01-24 01:38:29,0.0
6440,-160,18156,-154,125,-172,2024-01-24 01:38:29,0.0
6452,-172,18296,-167,159,-161,2024-01-24 01:38:29,0.0
6472,-232,18292,-143,260,-180,2024-01-24 01:38:29,0.0
6468,-228,18200,-180,317,-171,2024-01-24 01:38:29,0.0
6432,-200,18120,-154,234,-183,2024-01-24 01:38:29,0.0
6400,-132,18256,-183,126,-161,2024-01-24 01:38:29,0.0
6484,-220,18156,-162,101,-167,2024-01-24 01:38:29,0.0
6424,-276,18048,-184,160,-171,2024-01-24 01:38:29,0.0
6548,-312,18216,-182,156,-171,2024-01-24 01:38:29,0.0
6560,-300,18140,-174,166,-162,2024-01-24 01:38:29,0.0
6536,-356,18088,-175,214,-183,2024-01-24 01:38:29,0.0
6540,-176,18092,-177,224,-182,2024-01-24 01:38:29,0.0
6540,-324,18104,-172,179,-177,2024-01-24 01:38:29,0.0
6404,-244,18060,-146,156,-156,2024-01-24 01:38:29,0.0
6568,-268,18156,-155,127,-186,2024-01-24 01:38:29,0.0
6588,-372,18076,-158,219,-189,2024-01-24 01:38:29,0.0
6440,-188,18032,-154,153,-207,2024-01-24 01:38:29,0.0
6344,-216,17948,-207,138,-177,2024-01-24 01:38:29,0.0
6444,-320,18048,-180,166,-173,2024-01-24 01:38:29,0.0
6560,-328,18016,-163,229,-201,2024-01-24 01:38:29,0.0
6328,-272,18152,-161,242,-189,2024-01-24 01:38:29,0.0
6400,-228,18112,-161,172,-165,2024-01-24 01:38:29,0.0
6476,-288,18184,-157,169,-191,2024-01-24 01:38:29,0.0
6472,-376,18148,-173,138,-206,2024-01-24 01:38:29,0.0
6292,-124,18208,-186,122,-186,2024-01-24 01:38:29,0.0
6464,-280,18160,-162,135,-163,2024-01-24 01:38:29,0.0
6608,-360,18120,-148,222,-189,2024-01-24 01:38:29,0.0
6452,-152,18216,-153,303,-192,2024-01-24 01:38:29,0.0
6500,-144,18316,-176,264,-167,2024-01-24 01:38:29,0.0
6520,-252,18184,-173,148,-186,2024-01-24 01:38:29,0.0
6504,-260,18256,-141,92,-165,2024-01-24 01:38:29,0.0
6456,-108,18104,-148,156,-178,2024-01-24 01:38:29,0.0
6632,-208,18020,-178,171,-168,2024-01-24 01:38:29,0.0
6536,-288,18040,-151,171,-182,2024-01-24 01:38:29,0.0
6504,-224,17980,-158,183,-204,2024-01-24 01:38:29,0.0
6508,-260,17992,-163,218,-197,2024-01-24 01:38:29,0.0
6376,-272,18152,-165,215,-191,2024-01-24 01:38:29,0.0
6580,-312,18132,-176,158,-178,2024-01-24 01:38:29,0.0
6408,-272,18132,-177,148,-191,2024-01-24 01:38:29,0.0
6432,-228,18084,-174,133,-174,2024-01-24 01:38:29,0.0
6540,-280,18012,-180,108,-177,2024-01-24 01:38:29,0.0
6544,-276,18196,-149,178,-180,2024-01-24 01:38:29,0.0
6540,-212,18120,-163,237,-172,2024-01-24 01:38:29,0.0
6364,-236,18220,-166,256,-162,2024-01-24 01:38:29,0.0
6328,-212,18320,-164,221,-164,2024-01-24 01:38:29,0.0
6372,-216,18132,-173,171,-183,2024-01-24 01:38:29,0.0
6416,-188,18248,-167,179,-190,2024-01-24 01:38:29,0.0
6456,-300,18096,-187,181,-157,2024-01-24 01:38:30,0.0
6412,-272,18364,-185,206,-182,2024-01-24 01:38:30,0.0
6428,-260,18212,-164,215,-181,2024-01-24 01:38:30,0.0
6664,-284,18048,-176,162,-184,2024-01-24 01:38:30,
6616,-312,18028,-191,163,-187,2024-01-24 01:38:30,0.0
6516,-176,18120,-183,198,-189,2024-01-24 01:38:30,0.0
6516,-232,18024,-190,169,-194,2024-01-24 01:38:30,0.0
6544,-264,18012,-185,194,-185,2024-01-24 01:38:30,0.0
6588,-260,18096,-143,164,-187,2024-01-24 01:38:30,0.0
6460,-300,18108,-138,157,-165,2024-01-24 01:38:30,0.0
6492,-328,18116,-181,94,-203,2024-01-24 01:38:30,0.0
6424,-308,18056,-186,145,-160,2024-01-24 01:38:30,0.0
6576,-348,18072,-150,199,-188,2024-01-24 01:38:30,0.0
6628,-320,17984,-171,206,-193,2024-01-24 01:38:30,0.0
6460,-316,18172,-161,199,-181,2024-01-24 01:38:30,0.0
6440,-244,17968,-193,168,-185,2024-01-24 01:38:30,0.0
6296,-196,18152,-172,139,-161,2024-01-24 01:38:30,0.0
6324,-256,18048,-166,183,-157,2024-01-24 01:38:30,0.0
6524,-260,17996,-137,167,-155,2024-01-24 01:38:30,0.0
6420,-324,18252,-157,191,-172,2024-01-24 01:38:30,0.0
6424,-308,18132,-162,224,-166,2024-01-24 01:38:30,0.0
6448,-184,18160,-154,207,-164,2024-01-24 01:38:30,0.0
6468,-212,18192,-184,168,-171,2024-01-24 01:38:30,0.0
6508,-204,18156,-173,147,-144,2024-01-24 01:38:30,0.0
6396,-256,18260,-160,173,-199,2024-01-24 01:38:30,0.0
6580,-240,18200,-141,194,-155,2024-01-24 01:38:30,0.0
6552,-240,18068,-179,199,-187,2024-01-24 01:38:30,0.0
6496,-208,18052,-168,140,-169,2024-01-24 01:38:30,0.0
6488,-184,17968,-160,184,-165,2024-01-24 01:38:30,0.0
6544,-272,17932,-199,249,-188,2024-01-24 01:38:30,0.0
6536,-340,18024,-154,222,-195,2024-01-24 01:38:30,0.0
6548,-288,17984,-142,153,-197,2024-01-24 01:38:30,0.0
6580,-288,17972,-144,83,-188,2024-01-24 01:38:30,0.0
6580,-256,17876,-165,124,-186,2024-01-24 01:38:30,0.0
6504,-316,18036,-155,174,-215,2024-01-24 01:38:30,0.0
6536,-236,18124,-165,237,-181,2024-01-24 01:38:30,0.0
6432,-180,18088,-137,178,-174,2024-01-24 01:38:30,0.0
6516,-192,18152,-158,134,-192,2024-01-24 01:38:30,0.0
6472,-356,17904,-167,126,-197,2024-01-24 01:38:30,0.0
6556,-240,17980,-182,115,-204,2024-01-24 01:38:30,0.0
6608,-196,18012,-195,125,-191,2024-01-24 01:38:30,0.0
6648,-272,17924,-204,197,-176,2024-01-24 01:38:30,0.0
6544,-232,17980,-155,162,-175,2024-01-24 01:38:30,0.0
6532,-244,17904,-180,151,-213,2024-01-24 01:38:30,0.0
6536,-304,18192,-153,173,-203,2024-01-24 01:38:30,0.0
6400,-172,17864,-185,167,-149,2024-01-24 01:38:30,0.0
6468,-356,18176,-163,226,-166,2024-01-24 01:38:30,0.0
6604,-280,18416,-163,166,-163,2024-01-24 01:38:30,0.0
6280,-296,18136,-177,173,-180,2024-01-24 01:38:30,0.0
6356,-236,18192,-158,166,-155,2024-01-24 01:38:30,0.0
6440,-288,18084,-155,200,-166,2024-01-24 01:38:30,0.0
6568,-220,17988,-173,197,-184,2024-01-24 01:38:30,0.0
6592,-196,18040,-158,165,-188,2024-01-24 01:38:30,0.0
6452,-300,18200,-162,164,-148,2024-01-24 01:38:30,0.0
6496,-252,18224,-178,186,-186,2024-01-24 01:38:30,0.0
6468,-204,18184,-163,215,-170,2024-01-24 01:38:30,0.0
6360,-172,18108,-177,176,-169,2024-01-24 01:38:30,0.0
6536,-244,18176,-170,183,-161,2024-01-24 01:38:30,0.0
6456,-212,18204,-172,164,-158,2024-01-24 01:38:30,0.0
6572,-236,17988,-179,141,-196,2024-01-24 01:38:31,0.0
6488,-368,18136,-185,165,-182,2024-01-24 01:38:31,0.0
6568,-268,17924,-178,212,-197,2024-01-24 01:38:31,0.0
6564,-280,17916,-181,206,-186,2024-01-24 01:38:31,0.0
6492,-256,17992,-170,145,-165,2024-01-24 01:38:31,0.0
6564,-260,18204,-159,151,-190,2024-01-24 01:38:31,0.0
6492,-300,18024,-183,179,-191,2024-01-24 01:38:31,0.0
6456,-268,18140,-171,149,-190,2024-01-24 01:38:31,0.0
6592,-284,18220,-173,157,-180,2024-01-24 01:38:31,0.0
6568,-276,17988,-160,157,-201,2024-01-24 01:38:31,0.0
6604,-220,18140,-172,149,-170,2024-01-24 01:38:31,0.0
6412,-264,18232,-184,184,-202,2024-01-24 01:38:31,0.0
6620,-368,17948,-193,183,-193,2024-01-24 01:38:31,0.0
6516,-224,18020,-154,203,-178,2024-01-24 01:38:31,0.0
6444,-260,17988,-172,156,-210,2024-01-24 01:38:31,0.0
6564,-324,18072,-152,150,-204,2024-01-24 01:38:31,0.0
6452,-288,18068,-168,189,-163,2024-01-24 01:38:31,0.0
6456,-216,18136,-177,217,-185,2024-01-24 01:38:31,0.0
6484,-196,18220,-167,209,-171,2024-01-24 01:38:31,0.0
6472,-292,18196,-147,179,-156,2024-01-24 01:38:31,0.0
6508,-228,18180,-162,192,-193,2024-01-24 01:38:31,0.0
6540,-292,18048,-185,178,-194,2024-01-24 01:38:31,0.0
6444,-164,18024,-187,191,-196,2024-01-24 01:38:31,0.0
6448,-272,18024,-174,157,-218,2024-01-24 01:38:31,0.0
6480,-364,18112,-177,156,-178,2024-01-24 01:38:31,0.0
6448,-272,18140,-157,194,-172,2024-01-24 01:38:31,0.0
6404,-200,18180,-163,176,-184,2024-01-24 01:38:31,0.0
6428,-284,18144,-160,214,-209,2024-01-24 01:38:31,0.0
6448,-352,18108,-183,172,-185,2024-01-24 01:38:31,0.0
6536,-276,18008,-186,187,-196,2024-01-24 01:38:31,0.0
6616,-232,18204,-163,187,-171,2024-01-24 01:38:31,0.0
6608,-348,18088,-135,180,-180,2024-01-24 01:38:31,0.0
6464,-324,18336,-154,178,-177,2024-01-24 01:38:31,0.0
6352,-152,18032,-178,174,-162,2024-01-24 01:38:31,0.0
6516,-224,18008,-177,147,-170,2024-01-24 01:38:31,0.0
6544,-300,18068,-183,139,-175,2024-01-24 01:38:31,0.0
6488,-248,17964,-158,188,-191,2024-01-24 01:38:31,0.0
6580,-332,18040,-161,180,-183,2024-01-24 01:38:31,0.0
6536,-312,18032,-166,192,-168,2024-01-24 01:38:31,0.0
6496,-184,18168,-140,205,-166,2024-01-24 01:38:31,0.0
6460,-200,18064,-168,158,-190,2024-01-24 01:38:31,0.0
6432,-248,18244,-170,173,-177,2024-01-24 01:38:31,0.0
6500,-244,18092,-164,179,-178,2024-01-24 01:38:31,0.0
6392,-204,18116,-175,216,-169,2024-01-24 01:38:31,0.0
6504,-296,18044,-142,177,-177,2024-01-24 01:38:31,
6476,-256,18096,-135,201,-151,2024-01-24 01:38:31,0.0
6428,-268,18228,-168,196,-182,2024-01-24 01:38:31,0.0
6416,-228,18140,-164,232,-172,2024-01-24 01:38:31,0.0
6400,-252,18124,-163,188,-144,2024-01-24 01:38:31,0.0
6608,-164,18132,-131,182,-146,2024-01-24 01:38:31,0.0
6420,-272,18224,-142,179,-156,2024-01-24 01:38:31,0.0
6508,-212,18236,-122,192,-193,2024-01-24 01:38:31,0.0
6520,-232,18084,-177,229,-160,2024-01-24 01:38:31,0.0
6460,-232,18072,-169,231,-164,2024-01-24 01:38:31,0.0
6420,-296,18120,-128,178,-164,2024-01-24 01:38:31,0.0
6436,-176,18136,-153,174,-179,2024-01-24 01:38:31,0.0
6528,-188,18172,-164,181,-160,2024-01-24 01:38:31,0.0
6520,-216,18000,-173,196,-181,2024-01-24 01:38:31,0.0
6460,-184,18100,-155,208,-174,2024-01-24 01:38:31,0.0
6436,-228,18108,-159,221,-152,2024-01-24 01:38:32,0.0
6396,-312,18296,-160,200,-164,2024-01-24 01:38:32,0.0
6464,-320,18044,-156,201,-182,2024-01-24 01:38:32,0.0
6456,-164,18192,-160,200,-162,2024-01-24 01:38:32,0.0
6468,-232,18124,-160,250,-177,2024-01-24 01:38:32,0.0
6500,-264,18076,-163,235,-198,2024-01-24 01:38:32,0.0
6468,-196,18116,-169,167,-179,2024-01-24 01:38:32,0.0
6504,-272,17932,-184,164,-207,2024-01-24 01:38:32,0.0
6548,-280,18088,-158,176,-160,2024-01-24 01:38:32,0.0
6548,-324,18236,-159,185,-185,2024-01-24 01:38:32,0.0
6560,-256,18040,-170,176,-178,2024-01-24 01:38:32,0.0
6452,-324,17976,-200,166,-176,2024-01-24 01:38:32,0.0
6520,-248,18144,-174,148,-201,2024-01-24 01:38:32,0.0
6352,-300,18156,-189,192,-194,2024-01-24 01:38:32,0.0
6556,-196,18108,-148,197,-171,2024-01-24 01:38:32,0.0
6464,-280,18260,-179,227,-176,2024-01-24 01:38:32,0.0
6272,-280,18244,-156,211,-176,2024-01-24 01:38:32,0.0
6500,-200,18088,-144,206,-160,2024-01-24 01:38:32,0.0
6476,-204,18092,-158,174,-173,2024-01-24 01:38:32,0.0
6608,-192,18156,-181,231,-177,2024-01-24 01:38:32,0.0
6484,-268,18148,-149,181,-162,2024-01-24 01:38:32,0.0
6516,-300,18196,-180,174,-167,2024-01-24 01:38:32,0.0
6540,-260,17972,-164,147,-191,2024-01-24 01:38:32,0.0
6512,-276,18076,-195,163,-184,2024-01-24 01:38:32,0.0
6528,-304,17992,-148,163,-186,2024-01-24 01:38:32,0.0
6436,-320,18188,-171,247,-187,2024-01-24 01:38:32,0.0
6476,-212,18356,-149,203,-184,2024-01-24 01:38:32,0.0
6588,-328,18012,-174,174,-193,2024-01-24 01:38:32,0.0
6432,-260,17968,-170,194,-171,2024-01-24 01:38:32,0.0
6440,-220,18128,-167,245,-166,2024-01-24 01:38:32,0.0
6496,-236,18004,-136,203,-173,2024-01-24 01:38:32,0.0
6464,-188,18156,-167,169,-172,2024-01-24 01:38:32,0.0
6468,-228,18252,-166,180,-173,2024-01-24 01:38:32,0.0
6524,-208,18180,-158,202,-158,2024-01-24 01:38:32,0.0
6364,-144,18120,-148,189,-153,2024-01-24 01:38:32,0.0
6424,-184,18140,-166,199,-184,2024-01-24 01:38:32,0.0
6452,-192,18148,-148,179,-185,2024-01-24 01:38:32,0.0
6444,-336,18096,-152,208,-176,2024-01-24 01:38:32,0.0
6560,-324,18064,-200,177,-192,2024-01-24 01:38:32,0.0
6512,-220,18012,-187,181,-188,2024-01-24 01:38:32,0.0
6476,-276,18044,-194,148,-193,2024-01-24 01:38:32,0.0
6600,-240,18040,-150,99,-180,2024-01-24 01:38:32,0.0
6636,-324,18144,-174,146,-194,2024-01-24 01:38:32,0.0
6520,-232,18096,-173,201,-199,2024-01-24 01:38:32,0.0
6580,-232,17920,-180,210,-168,2024-01-24 01:38:32,0.0
6556,-268,18100,-196,222,-171,2024-01-24 01:38:32,0.0
6552,-252,18192,-155,202,-206,2024-01-24 01:38:32,0.0
6388,-204,18020,-147,134,-169,2024-01-24 01:38:32,0.0
6468,-136,18052,-164,117,-182,2024-01-24 01:38:32,0.0
6792,-368,18128,-173,170,-175,2024-01-24 01:38:32,0.0
6448,-220,18016,-166,134,-165,2024-01-24 01:38:32,0.0
6524,-420,18148,-161,98,-195,2024-01-24 01:38:32,0.0
6532,-268,18120,-144,201,-165,2024-01-24 01:38:32,0.0
6408,-220,18196,-165,279,-154,2024-01-24 01:38:32,0.0
6372,-308,18164,-161,284,-184,2024-01-24 01:38:32,0.0
6448,-232,18280,-169,175,-174,2024-01-24 01:38:32,0.0
6512,-260,18076,-192,136,-199,2024-01-24 01:38:32,0.0
6472,-216,17924,-164,135,-164,2024-01-24 01:38:32,0.0
6568,-300,18044,-194,217,-156,2024-01-24 01:38:32,0.0
6520,-160,18060,-155,218,-171,2024-01-24 01:38:33,0.0
6396,-252,18128,-170,197,-165,2024-01-24 01:38:33,0.0
6460,-236,18036,-175,156,-175,2024-01-24 01:38:33,0.0
6460,-348,18012,-170,204,-187,2024-01-24 01:38:33,0.0
6528,-224,17956,-170,192,-172,2024-01-24 01:38:33,0.0
6596,-180,18024,-173,155,-192,2024-01-24 01:38:33,0.0
6532,-236,18052,-182,146,-170,2024-01-24 01:38:33,0.0
6568,-340,18152,-161,124,-194,2024-01-24 01:38:33,0.0
6496,-320,18012,-160,155,-193,2024-01-24 01:38:33,0.0
6616,-232,18048,-180,161,-186,2024-01-24 01:38:33,0.0
6552,-240,17916,-168,180,-171,2024-01-24 01:38:33,0.0
6520,-260,18020,-170,209,-158,2024-01-24 01:38:33,0.0
6484,-316,18012,-165,153,-184,2024-01-24 01:38:33,0.0
6448,-396,18144,-167,185,-182,2024-01-24 01:38:33,0.0
6416,-288,18268,-188,201,-155,2024-01-24 01:38:33,0.0
6416,-224,18320,-176,208,-188,2024-01-24 01:38:33,0.0
6552,-296,17984,-194,169,-179,2024-01-24 01:38:33,0.0
6444,-308,18052,-165,149,-192,2024-01-24 01:38:33,0.0
6520,-236,18056,-177,148,-189,2024-01-24 01:38:33,0.0
6520,-184,18040,-160,188,-183,2024-01-24 01:38:33,0.0
6552,-264,17916,-177,208,-204,2024-01-24 01:38:33,0.0
6448,-312,18012,-177,202,-198,2024-01-24 01:38:33,0.0
6424,-324,18192,-151,201,-178,2024-01-24 01:38:33,0.0
6324,-268,18264,-157,213,-177,2024-01-24 01:38:33,0.0
6520,-288,18116,-149,169,-172,2024-01-24 01:38:33,0.0
6376,-364,18108,-162,145,-182,2024-01-24 01:38:33,0.0
6484,-252,18056,-180,180,-191,2024-01-24 01:38:33,
6492,-192,18136,-156,231,-208,2024-01-24 01:38:33,0.0
6432,-404,18252,-166,288,-178,2024-01-24 01:38:33,0.0
6464,-240,18152,-162,233,-166,2024-01-24 01:38:33,0.0
6332,-192,18212,-157,167,-147,2024-01-24 01:38:33,0.0
6336,-300,18248,-170,166,-153,2024-01-24 01:38:33,0.0
6468,-164,18260,-155,159,-197,2024-01-24 01:38:33,0.0
6532,-280,18288,-159,210,-193,2024-01-24 01:38:33,0.0
6476,-228,18208,-182,210,-173,2024-01-24 01:38:33,0.0
6528,-236,18284,-137,217,-163,2024-01-24 01:38:33,0.0
6472,-216,18124,-164,228,-165,2024-01-24 01:38:33,0.0
6560,-212,18184,-167,189,-181,2024-01-24 01:38:33,0.0
6532,-316,17936,-175,127,-181,2024-01-24 01:38:33,0.0
6588,-356,18148,-186,146,-188,2024-01-24 01:38:33,0.0
6532,-328,17936,-182,190,-200,2024-01-24 01:38:33,0.0
6544,-288,17976,-168,171,-201,2024-01-24 01:38:33,0.0
6624,-320,18036,-161,135,-174,2024-01-24 01:38:33,0.0
6504,-328,18096,-163,155,-183,2024-01-24 01:38:33,0.0
6472,-276,17960,-151,184,-180,2024-01-24 01:38:33,0.0
6484,-344,17920,-197,231,-212,2024-01-24 01:38:33,0.0
6512,-332,18024,-170,202,-173,2024-01-24 01:38:33,0.0
6436,-188,18116,-155,183,-176,2024-01-24 01:38:33,0.0
6468,-256,18080,-160,186,-158,2024-01-24 01:38:33,0.0
6520,-308,18008,-189,177,-200,2024-01-24 01:38:33,0.0
6452,-192,18224,-165,176,-169,2024-01-24 01:38:33,0.0
6604,-224,18204,-173,202,-168,2024-01-24 01:38:33,0.0
6432,-256,18208,-158,203,-181,2024-01-24 01:38:33,0.0
6396,-256,18328,-168,175,-167,2024-01-24 01:38:33,0.0
6336,-212,18064,-156,178,-174,2024-01-24 01:38:33,0.0
6440,-216,18148,-179,202,-153,2024-01-24 01:38:33,0.0
6412,-228,18212,-165,202,-167,2024-01-24 01:38:33,0.0
6496,-284,18104,-141,196,-165,2024-01-24 01:38:33,0.0
6448,-224,18164,-147,171,-170,2024-01-24 01:38:33,0.0
6508,-216,18260,-195,165,-162,2024-01-24 01:38:34,0.0
6504,-268,18292,-152,230,-145,2024-01-24 01:38:34,0.0
6420,-228,18164,-168,234,-151,2024-01-24 01:38:34,0.0
6392,-204,18308,-167,205,-177,2024-01-24 01:38:34,0.0
6572,-272,18076,-141,200,-162,2024-01-24 01:38:34,0.0
6532,-324,18104,-167,164,-186,2024-01-24 01:38:34,0.0
6536,-264,18104,-156,191,-193,2024-01-24 01:38:34,0.0
6496,-168,18172,-159,210,-173,2024-01-24 01:38:34,0.0
6468,-144,18148,-155,163,-180,2024-01-24 01:38:34,0.0
6516,-276,18184,-158,160,-183,2024-01-24 01:38:34,0.0
6496,-184,18032,-138,210,-179,2024-01-24 01:38:34,0.0
6604,-304,18212,-147,202,-180,2024-01-24 01:38:34,0.0
6496,-220,18124,-185,210,-183,2024-01-24 01:38:34,0.0
6588,-316,18032,-170,191,-205,2024-01-24 01:38:34,0.0
6496,-260,18056,-172,158,-181,2024-01-24 01:38:34,0.0
6456,-236,18000,-166,149,-211,2024-01-24 01:38:34,0.0
6484,-380,17924,-154,152,-163,2024-01-24 01:38:34,0.0
6556,-216,18100,-179,201,-183,2024-01-24 01:38:34,0.0
6528,-236,18028,-179,213,-164,2024-01-24 01:38:34,0.0
6508,-276,18192,-192,197,-167,2024-01-24 01:38:34,0.0
6524,-124,18196,-143,189,-192,2024-01-24 01:38:34,0.0
6536,-344,18112,-186,150,-187,2024-01-24 01:38:34,0.0
6508,-276,18152,-178,175,-188,2024-01-24 01:38:34,0.0
6420,-356,18160,-152,221,-165,2024-01-24 01:38:34,0.0
6408,-216,18204,-171,203,-176,2024-01-24 01:38:34,0.0
6520,-304,18052,-170,183,-188,2024-01-24 01:38:34,0.0
6424,-348,18144,-162,157,-158,2024-01-24 01:38:34,0.0
6532,-244,18188,-164,181,-184,2024-01-24 01:38:34,0.0
6516,-220,18072,-146,186,-179,2024-01-24 01:38:34,0.0
6456,-216,18160,-174,185,-160,2024-01-24 01:38:34,0.0
6552,-140,18044,-130,215,-177,2024-01-24 01:38:34,0.0
6388,-276,18136,-168,210,-162,2024-01-24 01:38:34,0.0
6488,-208,18136,-169,194,-180,2024-01-24 01:38:34,0.0
6400,-308,18148,-186,206,-190,2024-01-24 01:38:34,0.0
6492,-236,18212,-155,189,-186,2024-01-24 01:38:34,0.0
6504,-312,18176,-169,188,-187,2024-01-24 01:38:34,0.0
6428,-248,18280,-161,216,-174,2024-01-24 01:38:34,0.0
6556,-132,18004,-156,218,-155,2024-01-24 01:38:34,0.0
6484,-252,18136,-138,221,-167,2024-01-24 01:38:34,0.0
6496,-172,18136,-178,165,-167,2024-01-24 01:38:34,0.0
6544,-260,18052,-158,179,-181,2024-01-24 01:38:34,0.0
6504,-336,18132,-190,179,-187,2024-01-24 01:38:34,0.0
6640,-276,17892,-186,145,-175,2024-01-24 01:38:34,0.0
6512,-288,18100,-163,151,-195,2024-01-24 01:38:34,0.0
6380,-184,17948,-176,209,-189,2024-01-24 01:38:34,0.0
6448,-252,18308,-180,157,-188,2024-01-24 01:38:34,0.0
6496,-280,18036,-163,196,-196,2024-01-24 01:38:34,0.0
6448,-352,18060,-181,179,-189,2024-01-24 01:38:34,0.0
6548,-280,18116,-145,202,-197,2024-01-24 01:38:34,0.0
6588,-216,18120,-184,143,-181,2024-01-24 01:38:34,0.0
6440,-220,18028,-165,164,-183,2024-01-24 01:38:34,0.0
6480,-216,18096,-162,185,-179,2024-01-24 01:38:34,0.0
6536,-228,18228,-132,191,-193,2024-01-24 01:38:34,0.0
6452,-192,18192,-155,203,-181,2024-01-24 01:38:34,0.0
6404,-240,18084,-165,168,-165,2024-01-24 01:38:34,0.0
6416,-280,18272,-181,166,-172,2024-01-24 01:38:34,0.0
6396,-184,18288,-201,178,-163,2024-01-24 01:38:34,0.0
6616,-268,18128,-166,197,-163,2024-01-24 01:38:34,0.0
6480,-232,18040,-210,218,-181,2024-01-24 01:38:34,0.0
6456,-176,18184,-183,177,-194,2024-01-24 01:38:35,0.0
6636,-320,17884,-187,143,-194,2024-01-24 01:38:35,0.0
6484,-256,17992,-179,166,-165,2024-01-24 01:38:35,0.0
6572,-236,18064,-165,181,-171,2024-01-24 01:38:35,0.0
6544,-264,18004,-166,158,-180,2024-01-24 01:38:35,0.0
6536,-292,17936,-195,165,-190,2024-01-24 01:38:35,0.0
6596,-264,18060,-184,141,-207,2024-01-24 01:38:35,0.0
6536,-268,18140,-182,192,-192,2024-01-24 01:38:35,0.0
6432,-260,18052,-164,190,-168,2024-01-24 01:38:35,
6564,-320,18052,-175,135,-180,2024-01-24 01:38:35,0.0
6456,-336,18120,-189,206,-177,2024-01-24 01:38:35,0.0
6368,-268,18112,-151,136,-160,2024-01-24 01:38:35,0.0
6460,-280,18104,-173,152,-204,2024-01-24 01:38:35,0.0
6552,-292,18052,-197,200,-164,2024-01-24 01:38:35,0.0
6640,-284,17980,-185,183,-188,2024-01-24 01:38:35,0.0
6512,-212,18112,-198,169,-183,2024-01-24 01:38:35,0.0
6492,-288,18112,-195,155,-204,2024-01-24 01:38:35,0.0
6472,-180,18108,-152,188,-158,2024-01-24 01:38:35,0.0
6520,-288,18092,-144,200,-206,2024-01-24 01:38:35,0.0
6492,-320,18024,-175,192,-199,2024-01-24 01:38:35,0.0
6452,-316,18256,-167,197,-165,2024-01-24 01:38:35,0.0
6416,-212,18212,-187,182,-166,2024-01-24 01:38:35,0.0
6380,-232,18180,-164,195,-188,2024-01-24 01:38:35,0.0
6364,-284,18124,-158,199,-153,2024-01-24 01:38:35,0.0
6484,-144,18120,-178,207,-184,2024-01-24 01:38:35,0.0
6524,-284,18052,-166,182,-178,2024-01-24 01:38:35,0.0
6452,-264,17928,-179,168,-179,2024-01-24 01:38:35,0.0
6532,-224,18060,-187,189,-204,2024-01-24 01:38:35,0.0
6504,-212,18256,-161,152,-173,2024-01-24 01:38:35,0.0
6608,-180,18060,-164,139,-171,2024-01-24 01:38:35,0.0
6588,-252,17884,-202,136,-183,2024-01-24 01:38:35,0.0
6552,-288,17960,-160,149,-189,2024-01-24 01:38:35,0.0
6520,-184,18080,-158,168,-198,2024-01-24 01:38:35,0.0
6468,-252,18196,-183,230,-177,2024-01-24 01:38:35,0.0
6412,-188,18144,-164,220,-158,2024-01-24 01:38:35,0.0
6440,-200,18052,-165,208,-190,2024-01-24 01:38:35,0.0
6476,-192,18348,-169,193,-177,2024-01-24 01:38:35,0.0
6388,-320,18196,-176,194,-170,2024-01-24 01:38:35,0.0
6560,-320,18084,-169,219,-193,2024-01-24 01:38:35,0.0
6328,-252,18256,-163,204,-160,2024-01-24 01:38:35,0.0
6372,-256,17988,-167,209,-170,2024-01-24 01:38:35,0.0
6508,-260,18024,-152,197,-173,2024-01-24 01:38:35,0.0
6512,-208,18112,-155,208,-181,2024-01-24 01:38:35,0.0
6456,-192,18228,-183,213,-189,2024-01-24 01:38:35,0.0
6400,-280,18172,-165,175,-182,2024-01-24 01:38:35,0.0
6636,-308,18140,-158,192,-178,2024-01-24 01:38:35,0.0
6552,-232,18124,-151,237,-146,2024-01-24 01:38:35,0.0
6536,-232,18164,-174,237,-165,2024-01-24 01:38:35,0.0
6460,-228,18112,-153,189,-167,2024-01-24 01:38:35,0.0
6388,-176,18248,-170,129,-175,2024-01-24 01:38:35,0.0
6620,-240,18172,-162,192,-200,2024-01-24 01:38:35,0.0
6588,-148,18028,-186,265,-141,2024-01-24 01:38:35,0.0
6468,-128,18180,-149,222,-162,2024-01-24 01:38:35,0.0
6524,-276,17900,-187,159,-186,2024-01-24 01:38:35,0.0
6516,-304,18036,-155,149,-179,2024-01-24 01:38:35,0.0
6644,-260,18044,-171,166,-186,2024-01-24 01:38:35,0.0
6444,-232,17940,-141,163,-185,2024-01-24 01:38:35,0.0
6520,-184,18104,-150,152,-191,2024-01-24 01:38:35,0.0
6396,-216,18188,-167,179,-168,2024-01-24 01:38:35,0.0
6484,-252,18004,-206,185,-174,2024-01-24 01:38:36,0.0
6560,-324,18196,-178,206,-166,2024-01-24 01:38:36,0.0
6468,-248,18248,-144,166,-160,2024-01-24 01:38:36,0.0
6384,-248,18044,-195,159,-166,2024-01-24 01:38:36,0.0
6484,-232,18292,-149,186,-160,2024-01-24 01:38:36,0.0
6516,-224,18172,-157,230,-184,2024-01-24 01:38:36,0.0
6352,-148,18108,-166,180,-185,2024-01-24 01:38:36,0.0
6492,-288,18152,-140,150,-175,2024-01-24 01:38:36,0.0
6460,-252,18000,-179,205,-181,2024-01-24 01:38:36,0.0
6532,-252,17964,-166,201,-190,2024-01-24 01:38:36,0.0
6600,-312,18152,-169,178,-190,2024-01-24 01:38:36,0.0
6552,-336,18072,-177,123,-199,2024-01-24 01:38:36,0.0
6500,-228,18164,-157,204,-189,2024-01-24 01:38:36,0.0
6432,-256,17940,-176,177,-195,2024-01-24 01:38:36,0.0
6432,-280,18032,-163,211,-181,2024-01-24 01:38:36,0.0
6436,-196,18096,-185,192,-172,2024-01-24 01:38:36,0.0
6408,-216,18164,-162,188,-164,2024-01-24 01:38:36,0.0
6420,-212,18160,-134,212,-167,2024-01-24 01:38:36,0.0
6544,-196,18120,-171,197,-166,2024-01-24 01:38:36,0.0
6484,-200,18168,-157,198,-175,2024-01-24 01:38:36,0.0
6304,-180,18168,-179,223,-176,2024-01-24 01:38:36,0.0
6468,-320,18060,-159,219,-185,2024-01-24 01:38:36,0.0
6464,-172,18256,-158,172,-173,2024-01-24 01:38:36,0.0
6512,-220,17824,-179,137,-178,2024-01-24 01:38:36,0.0
6548,-284,18092,-184,197,-183,2024-01-24 01:38:36,0.0
6444,-316,18028,-155,149,-208,2024-01-24 01:38:36,0.0
6512,-296,18160,-173,175,-203,2024-01-24 01:38:36,0.0
6516,-296,17864,-162,161,-173,2024-01-24 01:38:36,0.0
6556,-268,18008,-163,168,-181,2024-01-24 01:38:36,0.0
6460,-280,18056,-161,195,-154,2024-01-24 01:38:36,0.0
6472,-208,18140,-170,196,-201,2024-01-24 01:38:36,0.0
6488,-188,17940,-188,134,-187,2024-01-24 01:38:36,0.0
6512,-264,18064,-158,132,-191,2024-01-24 01:38:36,0.0
6468,-276,17976,-188,138,-198,2024-01-24 01:38:36,0.0
6504,-276,18140,-203,162,-160,2024-01-24 01:38:36,0.0
6480,-164,17964,-173,172,-205,2024-01-24 01:38:36,0.0
6504,-268,18140,-158,165,-209,2024-01-24 01:38:36,0.0
6572,-280,18076,-184,160,-189,2024-01-24 01:38:36,0.0
6520,-208,17924,-180,168,-180,2024-01-24 01:38:36,0.0
6516,-352,18104,-152,163,-182,2024-01-24 01:38:36,0.0
6580,-268,17968,-178,188,-205,2024-01-24 01:38:36,0.0
6508,-244,18112,-188,222,-180,2024-01-24 01:38:36,0.0
6468,-244,18216,-162,180,-178,2024-01-24 01:38:36,0.0
6468,-264,18072,-192,157,-185,2024-01-24 01:38:36,0.0
6500,-348,18068,-174,216,-172,2024-01-24 01:38:36,0.0
6536,-220,18176,-173,218,-191,2024-01-24 01:38:36,0.0
6428,-336,18032,-163,165,-175,2024-01-24 01:38:36,0.0
6480,-228,18176,-168,124,-186,2024-01-24 01:38:36,0.0
6552,-192,17924,-177,183,-199,2024-01-24 01:38:36,0.0
6504,-220,18108,-172,288,-174,2024-01-24 01:38:36,
6488,-136,18296,-179,251,-169,2024-01-24 01:38:36,0.0
6492,-204,18092,-168,107,-169,2024-01-24 01:38:36,0.0
6512,-260,17988,-173,121,-194,2024-01-24 01:38:36,0.0
6560,-148,18096,-139,224,-174,2024-01-24 01:38:36,0.0
6612,-372,17996,-185,203,-199,2024-01-24 01:38:36,0.0
6276,-288,18084,-124,264,-193,2024-01-24 01:38:36,0.0
5804,-104,17820,-209,82,-143,2024-01-24 01:38:36,0.0
6284,-88,18028,-203,199,-156,2024-01-24 01:38:36,0.0
6620,-300,18180,-171,177,-202,2024-01-24 01:38:36,0.0
6504,-236,17948,-165,132,-211,2024-01-24 01:38:37,0.0
6516,-252,17848,-194,68,-171,2024-01-24 01:38:37,0.0
6620,-252,18148,-184,206,-168,2024-01-24 01:38:37,0.0
6596,-288,17988,-170,237,-183,2024-01-24 01:38:37,0.0
6468,-288,17856,-188,176,-184,2024-01-24 01:38:37,0.0
6512,-324,17988,-171,154,-171,2024-01-24 01:38:37,0.0
6348,-276,18132,-151,218,-188,2024-01-24 01:38:37,0.0
6424,-248,18184,-166,223,-173,2024-01-24 01:38:37,0.0
6436,-200,18112,-127,245,-180,2024-01-24 01:38:37,0.0
6456,-276,18260,-169,211,-187,2024-01-24 01:38:37,0.0
6356,-240,18204,-161,178,-154,2024-01-24 01:38:37,0.0
6456,-316,18192,-162,140,-182,2024-01-24 01:38:37,0.0
6504,-312,18232,-143,111,-180,2024-01-24 01:38:37,0.0
6584,-312,17924,-159,154,-174,2024-01-24 01:38:37,0.0
6608,-312,18108,-209,230,-192,2024-01-24 01:38:37,0.0
6568,-156,18124,-143,267,-179,2024-01-24 01:38:37,0.0
6512,-228,18152,-153,217,-174,2024-01-24 01:38:37,0.0
6420,-228,18268,-171,179,-161,2024-01-24 01:38:37,0.0
6580,-176,18208,-146,155,-163,2024-01-24 01:38:37,0.0
6808,-196,18304,-133,300,-168,2024-01-24 01:38:37,0.0
6828,-408,18244,-186,362,-204,2024-01-24 01:38:37,0.0
6256,-176,18016,-187,180,-191,2024-01-24 01:38:37,0.0
6508,-344,18052,-163,99,-185,2024-01-24 01:38:37,0.0
6704,-344,18028,-178,145,-204,2024-01-24 01:38:37,0.0
6612,-300,18092,-139,260,-221,2024-01-24 01:38:37,0.0
6264,-228,18076,-200,272,-156,2024-01-24 01:38:37,0.0
6368,-340,17988,-179,181,-172,2024-01-24 01:38:37,0.0
6348,-220,18152,-172,95,-163,2024-01-24 01:38:37,0.0
6548,-308,17976,-181,119,-172,2024-01-24 01:38:37,0.0
6528,-220,18152,-184,157,-186,2024-01-24 01:38:37,0.0
6492,-172,18196,-178,224,-169,2024-01-24 01:38:37,0.0
6432,-120,18256,-142,250,-132,2024-01-24 01:38:37,0.0
6632,-276,18156,-204,234,-161,2024-01-24 01:38:37,0.0
6408,-252,18240,-153,198,-170,2024-01-24 01:38:37,0.0
6456,-208,18192,-161,197,-169,2024-01-24 01:38:37,0.0
6508,-248,18220,-172,120,-157,2024-01-24 01:38:37,0.0
6500,-252,18184,-173,164,-175,2024-01-24 01:38:37,0.0
6544,-260,18152,-192,200,-169,2024-01-24 01:38:37,0.0
6408,-292,18032,-177,206,-182,2024-01-24 01:38:37,0.0
6468,-404,17996,-163,208,-142,2024-01-24 01:38:37,0.0
6632,-236,18068,-181,207,-218,2024-01-24 01:38:37,0.0
6508,-332,18040,-154,169,-172,2024-01-24 01:38:37,0.0
6488,-256,18072,-196,97,-189,2024-01-24 01:38:37,0.0
6388,-260,18168,-165,100,-186,2024-01-24 01:38:37,0.0
6504,-172,18120,-160,184,-189,2024-01-24 01:38:37,0.0
6496,-256,17984,-171,213,-191,2024-01-24 01:38:37,0.0
6604,-248,18208,-173,246,-183,2024-01-24 01:38:37,0.0
7088,-336,18484,-125,474,-202,2024-01-24 01:38:37,0.0
6812,-372,18248,-170,466,-245,2024-01-24 01:38:37,0.0
6032,-28,17936,-177,213,-169,2024-01-24 01:38:37,0.0
6456,-176,18108,-174,125,-162,2024-01-24 01:38:37,0.0
6588,-248,18060,-162,81,-188,2024-01-24 01:38:37,0.0
6256,-244,17776,-181,246,-173,2024-01-24 01:38:37,0.0
6448,-168,18192,-190,321,-165,2024-01-24 01:38:37,0.0
6528,-292,18156,-193,156,-186,2024-01-24 01:38:37,0.0
6504,-236,18088,-185,9,-165,2024-01-24 01:38:37,0.0
6608,-320,17880,-159,100,-206,2024-01-24 01:38:37,0.0
6616,-276,17992,-148,235,-179,2024-01-24 01:38:37,0.0
6504,-252,18208,-177,264,-170,2024-01-24 01:38:38,0.0
6412,-240,18068,-166,139,-161,2024-01-24 01:38:38,0.0
6576,-184,18012,-189,155,-208,2024-01-24 01:38:38,0.0
6476,-196,18032,-180,158,-184,2024-01-24 01:38:38,0.0
6420,-280,18208,-155,188,-166,2024-01-24 01:38:38,0.0
6452,-240,18196,-201,153,-174,2024-01-24 01:38:38,0.0
6528,-276,17876,-163,230,-178,2024-01-24 01:38:38,0.0
6380,-252,18204,-178,331,-184,2024-01-24 01:38:38,0.0
6380,-180,18140,-171,268,-180,2024-01-24 01:38:38,0.0
6376,-340,18148,-193,97,-167,2024-01-24 01:38:38,0.0
6456,-300,18000,-184,11,-190,2024-01-24 01:38:38,0.0
6456,-196,17952,-160,284,-176,2024-01-24 01:38:38,0.0
6588,-320,18164,-194,247,-203,2024-01-24 01:38:38,0.0
6604,-224,18136,-168,67,-177,2024-01-24 01:38:38,0.0
6416,-212,18120,-144,-11,-181,2024-01-24 01:38:38,0.0
6688,-244,18044,-191,258,-194,2024-01-24 01:38:38,0.0
6544,-268,18212,-166,346,-207,2024-01-24 01:38:38,0.0
6552,-328,17928,-201,197,-187,2024-01-24 01:38:38,0.0
6520,-292,18116,-179,-2,-184,2024-01-24 01:38:38,0.0
6628,-256,17992,-175,33,-176,2024-01-24 01:38:38,0.0
6560,-288,17944,-175,221,-208,2024-01-24 01:38:38,0.0
6480,-268,18208,-159,276,-168,2024-01-24 01:38:38,0.0
6364,-264,18196,-151,201,-184,2024-01-24 01:38:38,0.0
6332,-172,18176,-148,192,-172,2024-01-24 01:38:38,0.0
6416,-352,18116,-191,200,-193,2024-01-24 01:38:38,0.0
6492,-200,17968,-168,175,-180,2024-01-24 01:38:38,0.0
6612,-296,18040,-164,121,-213,2024-01-24 01:38:38,0.0
6532,-144,18264,-147,264,-168,2024-01-24 01:38:38,0.0
6496,-120,18172,-132,266,-184,2024-01-24 01:38:38,0.0
6436,-264,18140,-161,161,-165,2024-01-24 01:38:38,0.0
6476,-188,18228,-159,109,-177,2024-01-24 01:38:38,0.0
6196,-140,18188,-152,121,-121,2024-01-24 01:38:38,0.0
6492,-392,18340,-131,395,-174,2024-01-24 01:38:38,
6480,-236,18556,-165,317,-163,2024-01-24 01:38:38,0.0
6248,-156,18172,-146,139,-166,2024-01-24 01:38:38,0.0
6544,-276,18140,-182,15,-175,2024-01-24 01:38:38,0.0
6624,-312,18084,-140,156,-166,2024-01-24 01:38:38,0.0
6548,-296,18144,-158,331,-186,2024-01-24 01:38:38,0.0
6600,-276,18076,-187,262,-188,2024-01-24 01:38:38,0.0
6492,-304,18132,-172,54,-198,2024-01-24 01:38:38,0.0
6528,-336,17872,-164,51,-192,2024-01-24 01:38:38,0.0
6560,-324,18076,-166,162,-210,2024-01-24 01:38:38,0.0
6680,-216,18020,-188,226,-184,2024-01-24 01:38:38,0.0
6600,-100,18032,-185,214,-194,2024-01-24 01:38:38,0.0
6528,-264,18056,-167,162,-185,2024-01-24 01:38:38,0.0
6396,-244,17992,-158,192,-171,2024-01-24 01:38:38,0.0
6416,-208,17976,-162,151,-189,2024-01-24 01:38:38,0.0
6392,-300,18216,-165,164,-184,2024-01-24 01:38:38,0.0
6436,-240,18148,-170,203,-200,2024-01-24 01:38:38,0.0
6412,-236,18124,-168,267,-182,2024-01-24 01:38:38,0.0
6460,-304,18080,-180,200,-167,2024-01-24 01:38:38,0.0
6492,-284,18084,-153,138,-206,2024-01-24 01:38:38,0.0
6424,-368,18156,-134,38,-196,2024-01-24 01:38:38,0.0
6724,-248,17960,-164,228,-174,2024-01-24 01:38:38,0.0
6536,-384,18128,-181,345,-196,2024-01-24 01:38:38,0.0
6576,-304,18008,-160,223,-194,2024-01-24 01:38:38,0.0
6396,-172,18056,-171,25,-174,2024-01-24 01:38:38,0.0
6524,-368,18040,-197,36,-191,2024-01-24 01:38:38,0.0
6592,-268,18092,-178,332,-161,2024-01-24 01:38:38,0.0
6380,-232,18208,-156,350,-174,2024-01-24 01:38:39,0.0
6356,-260,18008,-210,170,-181,2024-01-24 01:38:39,0.0
6644,-224,18328,-159,20,-178,2024-01-24 01:38:39,0.0
6564,-216,17968,-142,131,-205,2024-01-24 01:38:39,0.0
6432,-140,18156,-188,289,-193,2024-01-24 01:38:39,0.0
6424,-280,18188,-181,273,-164,2024-01-24 01:38:39,0.0
6452,-300,18120,-168,225,-175,2024-01-24 01:38:39,0.0
6412,-260,18268,-161,206,-163,2024-01-24 01:38:39,0.0
6460,-316,18128,-172,203,-177,2024-01-24 01:38:39,0.0
6556,-268,18032,-164,147,-187,2024-01-24 01:38:39,0.0
6584,-256,18028,-186,61,-166,2024-01-24 01:38:39,0.0
6512,-288,17944,-168,183,-192,2024-01-24 01:38:39,0.0
6516,-296,18044,-175,257,-212,2024-01-24 01:38:39,0.0
6512,-196,18180,-165,233,-183,2024-01-24 01:38:39,0.0
6460,-164,18136,-166,186,-189,2024-01-24 01:38:39,0.0
7072,-412,18252,-147,123,-208,2024-01-24 01:38:39,0.0
6888,-296,18072,-117,453,-219,2024-01-24 01:38:39,0.0
6052,-152,17540,-246,189,-183,2024-01-24 01:38:39,0.0
6424,-184,17932,-214,111,-170,2024-01-24 01:38:39,0.0
6688,-336,18240,-182,-46,-193,2024-01-24 01:38:39,0.0
6464,-228,18028,-183,159,-169,2024-01-24 01:38:39,0.0
6552,-84,17956,-144,369,-178,2024-01-24 01:38:39,0.0
6472,-244,18364,-145,355,-165,2024-01-24 01:38:39,0.0
6472,-332,18084,-183,48,-187,2024-01-24 01:38:39,0.0
6428,-208,18040,-156,-2,-178,2024-01-24 01:38:39,0.0
6380,-248,18044,-216,184,-165,2024-01-24 01:38:39,0.0
6556,-244,18044,-159,229,-215,2024-01-24 01:38:39,0.0
6456,-284,18088,-183,160,-172,2024-01-24 01:38:39,0.0
6556,-284,17920,-165,115,-174,2024-01-24 01:38:39,0.0
6568,-184,17976,-182,227,-196,2024-01-24 01:38:39,0.0
6492,-260,18120,-159,240,-181,2024-01-24 01:38:39,0.0
6460,-156,18168,-158,136,-189,2024-01-24 01:38:39,0.0
6484,-132,18168,-160,54,-173,2024-01-24 01:38:39,0.0
6572,-104,17984,-169,202,-188,2024-01-24 01:38:39,0.0
6528,-200,18068,-178,276,-196,2024-01-24 01:38:39,0.0
6412,-336,18128,-179,220,-157,2024-01-24 01:38:39,0.0
6488,-360,18076,-169,102,-169,2024-01-24 01:38:39,0.0
6860,-384,18132,-142,148,-237,2024-01-24 01:38:39,0.0
5928,-192,17756,-186,217,-182,2024-01-24 01:38:39,0.0
6304,-204,18004,-218,205,-170,2024-01-24 01:38:39,0.0
6508,-340,18000,-206,135,-183,2024-01-24 01:38:39,0.0
6188,-68,18148,-179,80,-181,2024-01-24 01:38:39,0.0
6496,-200,18356,-197,169,-162,2024-01-24 01:38:39,0.0
6688,-316,18176,-142,299,-177,2024-01-24 01:38:39,0.0
6428,-240,18136,-199,284,-181,2024-01-24 01:38:39,0.0
6432,-256,18252,-179,122,-203,2024-01-24 01:38:39,0.0
6492,-276,18144,-166,86,-161,2024-01-24 01:38:39,0.0
6520,-192,18032,-181,121,-182,2024-01-24 01:38:39,0.0
6488,-208,18220,-175,220,-172,2024-01-24 01:38:39,0.0
6552,-132,18120,-157,258,-157,2024-01-24 01:38:39,0.0
6516,-148,18220,-146,256,-190,2024-01-24 01:38:39,0.0
6544,-256,18056,-176,128,-186,2024-01-24 01:38:39,0.0
6512,-216,18108,-178,73,-179,2024-01-24 01:38:39,0.0
6512,-220,18080,-158,100,-173,2024-01-24 01:38:39,0.0
6560,-232,17960,-143,215,-182,2024-01-24 01:38:39,0.0
6564,-280,18152,-191,268,-188,2024-01-24 01:38:39,0.0
6544,-188,18172,-122,283,-166,2024-01-24 01:38:39,0.0
6516,-328,18212,-142,134,-181,2024-01-24 01:38:39,0.0
6276,-336,17836,-173,-23,-197,2024-01-24 01:38:39,0.0
6272,-224,17820,-186,84,-156,2024-01-24 01:38:40,0.0
6872,-404,18284,-171,255,-221,2024-01-24 01:38:40,0.0
6560,-396,18048,-189,188,-194,2024-01-24 01:38:40,0.0
6404,-204,18136,-184,54,-188,2024-01-24 01:38:40,0.0
6492,-212,17988,-172,87,-167,2024-01-24 01:38:40,0.0
6564,-280,17920,-193,208,-194,2024-01-24 01:38:40,0.0
6624,-212,18204,-149,331,-214,2024-01-24 01:38:40,0.0
6520,-276,18208,-179,138,-199,2024-01-24 01:38:40,0.0
6516,-340,18240,-189,53,-195,2024-01-24 01:38:40,0.0
6484,-312,17980,-201,102,-180,2024-01-24 01:38:40,0.0
6460,-240,18184,-154,246,-171,2024-01-24 01:38:40,0.0
6580,-268,18124,-189,217,-182,2024-01-24 01:38:40,0.0
6536,-312,17956,-171,178,-216,2024-01-24 01:38:40,0.0
6476,-288,18072,-184,156,-196,2024-01-24 01:38:40,0.0
6476,-304,18252,-170,244,-182,2024-01-24 01:38:40,
6440,-276,18052,-150,179,-163,2024-01-24 01:38:40,0.0
6428,-192,18108,-147,83,-161,2024-01-24 01:38:40,0.0
6496,-200,18072,-176,183,-176,2024-01-24 01:38:40,0.0
6628,-220,18104,-177,291,-203,2024-01-24 01:38:40,0.0
6388,-220,18020,-189,306,-174,2024-01-24 01:38:40,0.0
6368,-232,18216,-173,181,-171,2024-01-24 01:38:40,0.0
6672,-508,18380,-124,52,-265,2024-01-24 01:38:40,0.0
5772,-212,17992,-185,238,-156,2024-01-24 01:38:40,0.0
6220,-152,18124,-211,192,-145,2024-01-24 01:38:40,0.0
6516,-260,18180,-179,89,-146,2024-01-24 01:38:40,0.0
6568,-220,18152,-172,-21,-189,2024-01-24 01:38:40,0.0
6376,-180,17952,-193,188,-155,2024-01-24 01:38:40,0.0
6596,-208,18116,-142,362,-147,2024-01-24 01:38:40,0.0
6444,-296,18080,-152,234,-194,2024-01-24 01:38:40,0.0
6452,-176,18104,-187,26,-166,2024-01-24 01:38:40,0.0
6448,-144,18160,-148,94,-169,2024-01-24 01:38:40,0.0
6544,-324,18096,-161,260,-205,2024-01-24 01:38:40,0.0
6448,-224,18048,-203,227,-165,2024-01-24 01:38:40,0.0
6504,-376,18088,-183,106,-194,2024-01-24 01:38:40,0.0
6652,-228,18096,-174,94,-167,2024-01-24 01:38:40,0.0
6652,-312,18012,-190,192,-191,2024-01-24 01:38:40,0.0
6588,-284,18104,-171,194,-177,2024-01-24 01:38:40,0.0
6500,-248,18016,-178,121,-187,2024-01-24 01:38:40,0.0
6560,-344,18124,-142,165,-206,2024-01-24 01:38:40,0.0
6512,-312,18056,-173,266,-190,2024-01-24 01:38:40,0.0
6516,-264,18060,-188,210,-166,2024-01-24 01:38:40,0.0
6488,-332,17972,-155,123,-183,2024-01-24 01:38:40,0.0
6444,-244,18064,-166,23,-180,2024-01-24 01:38:40,0.0
6508,-192,18244,-142,347,-182,2024-01-24 01:38:40,0.0
5840,-152,17920,-207,163,-156,2024-01-24 01:38:40,0.0
6352,-216,18084,-180,83,-169,2024-01-24 01:38:40,0.0
6460,-240,18260,-159,11,-182,2024-01-24 01:38:40,0.0
6464,-276,18036,-162,224,-167,2024-01-24 01:38:40,0.0
6660,-200,18240,-162,375,-181,2024-01-24 01:38:40,0.0
6540,-176,18380,-147,246,-168,2024-01-24 01:38:40,0.0
6376,-340,18272,-143,-3,-199,2024-01-24 01:38:40,0.0
6480,-208,18116,-164,72,-162,2024-01-24 01:38:40,0.0
6620,-364,18120,-202,256,-221,2024-01-24 01:38:40,0.0
6472,-272,17940,-190,230,-187,2024-01-24 01:38:40,0.0
6516,-300,18088,-145,149,-185,2024-01-24 01:38:40,0.0
6344,-328,18124,-183,183,-150,2024-01-24 01:38:40,0.0
6560,-248,18088,-162,215,-183,2024-01-24 01:38:40,0.0
6536,-248,18012,-162,148,-193,2024-01-24 01:38:40,0.0
6408,-340,18164,-153,93,-204,2024-01-24 01:38:40,0.0
6544,-296,18100,-166,157,-167,2024-01-24 01:38:41,0.0
6448,-244,18124,-170,291,-177,2024-01-24 01:38:41,0.0
6440,-244,18172,-173,276,-193,2024-01-24 01:38:41,0.0
6436,-292,18188,-196,136,-185,2024-01-24 01:38:41,0.0
7332,-192,18204,-174,327,-163,2024-01-24 01:38:41,0.0
7420,-476,18580,-148,562,-233,2024-01-24 01:38:41,0.0
7148,-532,18668,-150,296,-226,2024-01-24 01:38:41,0.0
6588,-328,18300,-151,85,-201,2024-01-24 01:38:41,0.0
6428,-256,17848,-163,-34,-179,2024-01-24 01:38:41,0.0
6800,-332,18244,-139,368,-195,2024-01-24 01:38:41,0.0
6512,-296,18176,-144,518,-194,2024-01-24 01:38:41,0.0
6116,-264,18168,-187,230,-158,2024-01-24 01:38:41,0.0
6364,-248,18252,-170,-75,-174,2024-01-24 01:38:41,0.0
6436,-228,18064,-141,84,-144,2024-01-24 01:38:41,0.0
6436,-212,18164,-165,301,-168,2024-01-24 01:38:41,0.0
6408,-196,18156,-169,286,-174,2024-01-24 01:38:41,0.0
6436,-204,18284,-164,121,-160,2024-01-24 01:38:41,0.0
6452,-188,17988,-160,143,-167,2024-01-24 01:38:41,0.0
6544,-224,18260,-158,264,-178,2024-01-24 01:38:41,0.0
6436,-308,18236,-162,269,-185,2024-01-24 01:38:41,0.0
6484,-260,18164,-161,135,-187,2024-01-24 01:38:41,0.0
6544,-256,18140,-169,160,-185,2024-01-24 01:38:41,0.0
6452,-96,18180,-156,255,-163,2024-01-24 01:38:41,0.0
6428,-264,18092,-164,194,-177,2024-01-24 01:38:41,0.0
6368,-268,18136,-186,125,-163,2024-01-24 01:38:41,0.0
6624,-300,18192,-165,73,-191,2024-01-24 01:38:41,0.0
7008,-316,18108,-120,494,-226,2024-01-24 01:38:41,0.0
6184,-264,17704,-199,438,-211,2024-01-24 01:38:41,0.0
6368,-124,18072,-194,36,-169,2024-01-24 01:38:41,0.0
6532,-264,18088,-149,-79,-190,2024-01-24 01:38:41,0.0
6600,-272,18044,-170,80,-193,2024-01-24 01:38:41,0.0
6520,-268,18232,-167,427,-190,2024-01-24 01:38:41,0.0
6172,-212,18228,-169,386,-175,2024-01-24 01:38:41,0.0
6360,-196,18164,-168,39,-177,2024-01-24 01:38:41,0.0
6512,-184,18152,-143,-69,-189,2024-01-24 01:38:41,0.0
6556,-132,18056,-160,134,-193,2024-01-24 01:38:41,0.0
6464,-408,17824,-187,311,-184,2024-01-24 01:38:41,0.0
6588,-204,18148,-166,294,-155,2024-01-24 01:38:41,0.0
6536,-308,18196,-159,143,-170,2024-01-24 01:38:41,0.0
6528,-252,18120,-189,105,-169,2024-01-24 01:38:41,0.0
6492,-248,18016,-169,157,-196,2024-01-24 01:38:41,0.0
6576,-228,18088,-153,131,-213,2024-01-24 01:38:41,0.0
6604,-236,18056,-148,166,-217,2024-01-24 01:38:41,0.0
6604,-264,18076,-172,249,-198,2024-01-24 01:38:41,0.0
6468,-188,18176,-179,254,-163,2024-01-24 01:38:41,0.0
7176,56,18116,-205,251,-104,2024-01-24 01:38:41,0.0
7180,-384,18736,-122,386,-150,2024-01-24 01:38:41,0.0
7116,-312,18928,-117,207,-223,2024-01-24 01:38:41,0.0
6500,-284,18488,-133,213,-182,2024-01-24 01:38:41,0.0
6172,-196,18188,-150,58,-149,2024-01-24 01:38:41,0.0
6752,-384,18372,-140,299,-188,2024-01-24 01:38:41,0.0
6812,-280,18300,-150,412,-194,2024-01-24 01:38:41,0.0
6208,-140,18024,-184,168,-164,2024-01-24 01:38:41,0.0
6396,-172,18192,-150,41,-168,2024-01-24 01:38:41,0.0
6540,-216,18184,-177,116,-187,2024-01-24 01:38:41,0.0
6572,-236,17976,-162,250,-156,2024-01-24 01:38:41,
6536,-172,18104,-175,277,-167,2024-01-24 01:38:41,0.0
6492,-220,18068,-176,86,-183,2024-01-24 01:38:41,0.0
6524,-172,18096,-183,97,-171,2024-01-24 01:38:41,0.0
6616,-224,17944,-186,246,-187,2024-01-24 01:38:42,0.0
6556,-344,18080,-171,305,-170,2024-01-24 01:38:42,0.0
6568,-196,18088,-179,142,-225,2024-01-24 01:38:42,0.0
6440,-304,18012,-166,132,-194,2024-01-24 01:38:42,0.0
6432,-244,18256,-190,217,-167,2024-01-24 01:38:42,0.0
6472,-280,18148,-161,200,-184,2024-01-24 01:38:42,0.0
6552,-160,18164,-141,88,-185,2024-01-24 01:38:42,0.0
6368,-240,18044,-156,-143,-160,2024-01-24 01:38:42,0.0
6256,-236,17788,-170,278,-147,2024-01-24 01:38:42,0.0
6552,-404,18036,-167,297,-174,2024-01-24 01:38:42,0.0
6348,-176,18320,-150,96,-166,2024-01-24 01:38:42,0.0
6348,-252,18076,-158,-94,-169,2024-01-24 01:38:42,0.0
6764,-408,18292,-153,216,-159,2024-01-24 01:38:42,0.0
6780,-308,18288,-138,452,-175,2024-01-24 01:38:42,0.0
6408,-312,18412,-152,342,-195,2024-01-24 01:38:42,0.0
6516,-240,18148,-174,-38,-169,2024-01-24 01:38:42,0.0
6640,-304,18244,-139,64,-180,2024-01-24 01:38:42,0.0
6500,-268,17848,-161,259,-197,2024-01-24 01:38:42,0.0
6604,-176,18264,-169,316,-170,2024-01-24 01:38:42,0.0
6476,-196,18216,-146,183,-174,2024-01-24 01:38:42,0.0
6488,-220,18100,-146,110,-167,2024-01-24 01:38:42,0.0
6540,-240,18220,-169,175,-151,2024-01-24 01:38:42,0.0
6600,-196,18084,-178,169,-196,2024-01-24 01:38:42,0.0
6504,-296,18024,-168,96,-166,2024-01-24 01:38:42,0.0
6588,-196,18136,-180,137,-191,2024-01-24 01:38:42,0.0
6532,-248,17924,-182,298,-183,2024-01-24 01:38:42,0.0
6500,-168,18028,-178,210,-212,2024-01-24 01:38:42,0.0
6296,-244,18180,-174,116,-172,2024-01-24 01:38:42,0.0
6436,-280,18032,-178,111,-181,2024-01-24 01:38:42,0.0
6584,-300,18108,-170,83,-191,2024-01-24 01:38:42,0.0
6388,-344,17860,-204,360,-155,2024-01-24 01:38:42,0.0
6312,-252,18032,-184,67,-169,2024-01-24 01:38:42,0.0
6588,-352,18168,-172,34,-174,2024-01-24 01:38:42,0.0
6364,-296,17964,-167,61,-190,2024-01-24 01:38:42,0.0
6604,-240,18312,-149,367,-168,2024-01-24 01:38:42,0.0
6600,-220,18272,-131,426,-179,2024-01-24 01:38:42,0.0
6368,-252,18240,-158,186,-196,2024-01-24 01:38:42,0.0
6460,-196,18164,-155,-9,-156,2024-01-24 01:38:42,0.0
6480,-216,18012,-154,100,-166,2024-01-24 01:38:42,0.0
6500,-288,18104,-154,230,-177,2024-01-24 01:38:42,0.0
6544,-300,18140,-182,228,-190,2024-01-24 01:38:42,0.0
6580,-332,18044,-158,200,-186,2024-01-24 01:38:42,0.0
6496,-188,17988,-181,183,-160,2024-01-24 01:38:42,0.0
6476,-316,18016,-165,160,-187,2024-01-24 01:38:42,0.0
6428,-236,18052,-175,201,-186,2024-01-24 01:38:42,0.0
6356,-388,17972,-189,203,-188,2024-01-24 01:38:42,0.0
6372,-308,18080,-188,224,-203,2024-01-24 01:38:42,0.0
6380,-256,18196,-150,200,-161,2024-01-24 01:38:42,0.0
6380,-288,18236,-149,125,-180,2024-01-24 01:38:42,0.0
6456,-324,18252,-168,133,-153,2024-01-24 01:38:42,0.0
6512,-232,18156,-154,213,-170,2024-01-24 01:38:42,0.0
6508,-248,18276,-147,257,-169,2024-01-24 01:38:42,0.0
6444,-372,18340,-187,83,-177,2024-01-24 01:38:42,0.0
5832,-56,17760,-167,98,-134,2024-01-24 01:38:42,0.0
5796,-88,17760,-199,56,-106,2024-01-24 01:38:42,0.0
6816,-332,18184,-189,241,-168,2024-01-24 01:38:42,0.0
6600,-296,18112,-180,215,-168,2024-01-24 01:38:42,0.0
6236,-172,18108,-171,160,-145,2024-01-24 01:38:42,0.0
6704,-364,18160,-174,182,-209,2024-01-24 01:38:42,0.0
6572,-280,18088,-145,210,-206,2024-01-24 01:38:43,0.0
6464,-228,18096,-163,96,-169,2024-01-24 01:38:43,0.0
6604,-340,18088,-162,138,-194,2024-01-24 01:38:43,0.0
6544,-220,18076,-127,203,-181,2024-01-24 01:38:43,0.0
6444,-260,18216,-188,242,-186,2024-01-24 01:38:43,0.0
6464,-224,17984,-153,155,-171,2024-01-24 01:38:43,0.0
6564,-260,18084,-161,107,-194,2024-01-24 01:38:43,0.0
6620,-300,17964,-170,72,-166,2024-01-24 01:38:43,0.0
6368,-236,18228,-178,206,-188,2024-01-24 01:38:43,0.0
6544,-320,18164,-157,190,-192,2024-01-24 01:38:43,0.0
6508,-208,18120,-168,176,-153,2024-01-24 01:38:43,0.0
6356,-188,18172,-141,256,-170,2024-01-24 01:38:43,0.0
6336,-244,18068,-179,307,-169,2024-01-24 01:38:43,0.0
6440,-236,18276,-187,232,-184,2024-01-24 01:38:43,0.0
6396,-172,18108,-189,160,-153,2024-01-24 01:38:43,0.0
7052,-392,18576,-151,388,-243,2024-01-24 01:38:43,0.0
6716,-248,18052,-135,396,-235,2024-01-24 01:38:43,0.0
5996,-36,17836,-203,210,-151,2024-01-24 01:38:43,0.0
6232,-192,18236,-175,142,-161,2024-01-24 01:38:43,0.0
6424,-212,18264,-158,165,-169,2024-01-24 01:38:43,0.0
6456,-316,18020,-165,143,-156,2024-01-24 01:38:43,0.0
6384,-220,17988,-167,182,-190,2024-01-24 01:38:43,0.0
6524,-264,18064,-156,165,-183,2024-01-24 01:38:43,0.0
6476,-300,18092,-172,177,-197,2024-01-24 01:38:43,0.0
6520,-240,18032,-167,166,-173,2024-01-24 01:38:43,0.0
6620,-248,17972,-158,171,-204,2024-01-24 01:38:43,0.0
6456,-248,17968,-157,172,-190,2024-01-24 01:38:43,0.0
6564,-176,18040,-175,180,-177,2024-01-24 01:38:43,0.0
6564,-332,18148,-193,206,-180,2024-01-24 01:38:43,0.0
6472,-364,18140,-182,179,-209,2024-01-24 01:38:43,0.0
6364,-300,18184,-196,201,-187,2024-01-24 01:38:43,0.0
6492,-340,18188,-160,151,-156,2024-01-24 01:38:43,0.0
6536,-320,18040,-184,225,-181,2024-01-24 01:38:43,0.0
6140,-172,18572,-101,378,-194,2024-01-24 01:38:43,0.0
5784,-76,17724,-225,66,-129,2024-01-24 01:38:43,0.0
6208,-168,18180,-185,112,-138,2024-01-24 01:38:43,0.0
6648,-260,18392,-154,56,-185,2024-01-24 01:38:43,0.0
6344,-164,17780,-162,53,-159,2024-01-24 01:38:43,
6512,-284,18080,-154,153,-135,2024-01-24 01:38:43,0.0
6680,-268,18240,-179,290,-176,2024-01-24 01:38:43,0.0
6372,-320,17984,-180,214,-183,2024-01-24 01:38:43,0.0
6452,-308,18096,-173,163,-203,2024-01-24 01:38:43,0.0
6584,-356,18124,-165,126,-189,2024-01-24 01:38:43,0.0
6444,-252,18048,-172,147,-191,2024-01-24 01:38:43,0.0
6624,-284,17980,-167,212,-175,2024-01-24 01:38:43,0.0
6540,-280,17944,-173,230,-186,2024-01-24 01:38:43,0.0
6544,-288,18040,-175,194,-178,2024-01-24 01:38:43,0.0
6456,-356,18132,-188,135,-174,2024-01-24 01:38:43,0.0
6548,-316,18012,-185,117,-164,2024-01-24 01:38:43,0.0
6516,-324,18004,-165,176,-187,2024-01-24 01:38:43,0.0
6480,-352,18072,-166,240,-216,2024-01-24 01:38:43,0.0
6376,-404,18280,-154,250,-193,2024-01-24 01:38:43,0.0
6432,-336,18140,-157,174,-177,2024-01-24 01:38:43,0.0
6432,-264,18156,-166,128,-174,2024-01-24 01:38:43,0.0
6508,-212,18200,-176,114,-168,2024-01-24 01:38:43,0.0
6624,-120,18172,-169,211,-167,2024-01-24 01:38:43,0.0
6632,-200,18012,-156,197,-182,2024-01-24 01:38:43,0.0
6480,-164,18056,-179,186,-184,2024-01-24 01:38:43,0.0
6516,-236,18092,-160,169,-184,2024-01-24 01:38:44,0.0
6504,-252,18068,-145,184,-183,2024-01-24 01:38:44,0.0
6488,-260,18056,-170,217,-164,2024-01-24 01:38:44,0.0
6476,-180,18156,-143,251,-151,2024-01-24 01:38:44,0.0
6508,-184,18084,-167,224,-178,2024-01-24 01:38:44,0.0
6424,-188,18280,-181,148,-181,2024-01-24 01:38:44,0.0
6532,-280,17884,-173,123,-192,2024-01-24 01:38:44,0.0
6516,-248,18064,-183,198,-189,2024-01-24 01:38:44,0.0
6520,-288,18040,-173,217,-172,2024-01-24 01:38:44,0.0
6468,-260,18196,-150,206,-194,2024-01-24 01:38:44,0.0
6492,-332,18088,-179,183,-188,2024-01-24 01:38:44,0.0
6384,-316,18128,-170,175,-199,2024-01-24 01:38:44,0.0
6476,-208,18240,-141,165,-203,2024-01-24 01:38:44,0.0
6500,-276,18000,-178,152,-188,2024-01-24 01:38:44,0.0
6548,-192,18096,-178,201,-156,2024-01-24 01:38:44,0.0
6392,-256,18048,-174,202,-174,2024-01-24 01:38:44,0.0
6412,-180,18236,-177,250,-180,2024-01-24 01:38:44,0.0
6464,-208,18164,-190,252,-196,2024-01-24 01:38:44,0.0
6396,-332,18160,-168,217,-174,2024-01-24 01:38:44,0.0
6488,-252,18116,-140,148,-172,2024-01-24 01:38:44,0.0
6520,-364,18004,-169,143,-180,2024-01-24 01:38:44,0.0
6464,-264,18088,-166,147,-173,2024-01-24 01:38:44,0.0
6372,-308,18268,-185,186,-193,2024-01-24 01:38:44,0.0
6408,-200,18224,-142,168,-168,2024-01-24 01:38:44,0.0
6528,-280,18040,-152,179,-180,2024-01-24 01:38:44,0.0
6508,-164,18084,-143,190,-183,2024-01-24 01:38:44,0.0
6540,-260,18000,-171,171,-159,2024-01-24 01:38:44,0.0
6424,-228,18228,-163,165,-205,2024-01-24 01:38:44,0.0
6520,-152,18068,-148,180,-157,2024-01-24 01:38:44,0.0
6464,-188,18192,-134,208,-160,2024-01-24 01:38:44,0.0
6452,-296,18140,-163,200,-177,2024-01-24 01:38:44,0.0
6424,-244,18108,-174,180,-192,2024-01-24 01:38:44,0.0
6504,-140,18140,-209,222,-158,2024-01-24 01:38:44,0.0
6480,-228,18200,-175,222,-181,2024-01-24 01:38:44,0.0
6416,-268,18156,-162,229,-165,2024-01-24 01:38:44,0.0
6468,-232,18096,-141,169,-178,2024-01-24 01:38:44,0.0
6452,-204,18072,-136,170,-166,2024-01-24 01:38:44,0.0
6440,-244,18168,-163,151,-163,2024-01-24 01:38:44,0.0
6500,-304,18224,-170,182,-165,2024-01-24 01:38:44,0.0
6524,-232,18056,-146,182,-168,2024-01-24 01:38:44,0.0
6536,-192,17940,-165,153,-199,2024-01-24 01:38:44,0.0
6528,-304,18004,-175,201,-176,2024-01-24 01:38:44,0.0
6620,-228,18000,-170,198,-170,2024-01-24 01:38:44,0.0
6496,-268,18144,-184,178,-170,2024-01-24 01:38:44,0.0
6548,-256,18120,-180,170,-182,2024-01-24 01:38:44,0.0
6540,-304,18144,-169,187,-180,2024-01-24 01:38:44,0.0
6456,-384,18020,-165,150,-203,2024-01-24 01:38:44,0.0
6504,-336,18140,-155,143,-166,2024-01-24 01:38:44,0.0
6632,-304,18000,-170,156,-175,2024-01-24 01:38:44,0.0
6456,-432,18224,-178,168,-198,2024-01-24 01:38:44,0.0
6468,-212,17992,-152,153,-174,2024-01-24 01:38:44,0.0
6424,-300,18024,-174,124,-211,2024-01-24 01:38:44,0.0
6592,-300,17756,-186,87,-193,2024-01-24 01:38:44,0.0
6632,-384,18036,-134,151,-226,2024-01-24 01:38:44,0.0
6404,-324,17948,-176,211,-193,2024-01-24 01:38:44,0.0
6504,-284,18076,-155,162,-201,2024-01-24 01:38:44,0.0
6392,-308,18172,-166,169,-158,2024-01-24 01:38:44,0.0
6500,-152,18160,-146,207,-156,2024-01-24 01:38:44,0.0
6440,-316,18088,-175,260,-184,2024-01-24 01:38:44,0.0
6492,-268,18084,-157,253,-186,2024-01-24 01:38:44,0.0
6364,-304,18080,-179,162,-151,2024-01-24 01:38:45,0.0
6456,-256,18204,-190,124,-187,2024-01-24 01:38:45,0.0
6504,-156,18224,-160,197,-169,2024-01-24 01:38:45,0.0
6488,-288,18156,-175,272,-163,2024-01-24 01:38:45,0.0
6456,-232,18188,-174,223,-189,2024-01-24 01:38:45,0.0
6432,-224,18164,-177,151,-162,2024-01-24 01:38:45,0.0
6388,-164,18096,-204,134,-161,2024-01-24 01:38:45,0.0
6464,-184,18108,-169,156,-171,2024-01-24 01:38:45,0.0
6524,-220,17944,-160,138,-173,2024-01-24 01:38:45,0.0
6448,-244,18076,-176,178,-176,2024-01-24 01:38:45,0.0
6596,-324,18160,-173,169,-176,2024-01-24 01:38:45,0.0
6564,-184,18200,-147,158,-180,2024-01-24 01:38:45,0.0
6468,-340,18016,-161,113,-162,2024-01-24 01:38:45,0.0
6580,-304,18168,-195,164,-193,2024-01-24 01:38:45,0.0
6504,-288,18036,-190,206,-228,2024-01-24 01:38:45,0.0
6536,-236,18120,-178,217,-172,2024-01-24 01:38:45,0.0
6464,-256,17912,-186,175,-193,2024-01-24 01:38:45,0.0
6592,-216,18148,-153,141,-199,2024-01-24 01:38:45,0.0
6524,-352,18208,-164,167,-189,2024-01-24 01:38:45,0.0
6480,-244,17964,-182,187,-168,2024-01-24 01:38:45,
6488,-296,18204,-158,169,-194,2024-01-24 01:38:45,0.0
6360,-260,18100,-149,198,-181,2024-01-24 01:38:45,0.0
6428,-312,18060,-172,197,-170,2024-01-24 01:38:45,0.0
6440,-340,18056,-158,200,-181,2024-01-24 01:38:45,0.0
6452,-244,18164,-151,228,-163,2024-01-24 01:38:45,0.0
6404,-236,18204,-180,183,-180,2024-01-24 01:38:45,0.0
6352,-184,18108,-159,139,-182,2024-01-24 01:38:45,0.0
6472,-296,18164,-159,144,-186,2024-01-24 01:38:45,0.0
6416,-236,18116,-166,198,-151,2024-01-24 01:38:45,0.0
6416,-184,18272,-166,218,-194,2024-01-24 01:38:45,0.0
6248,-156,18064,-168,144,-177,2024-01-24 01:38:45,0.0
6476,-184,18092,-177,174,-136,2024-01-24 01:38:45,0.0
6616,-296,18160,-173,225,-171,2024-01-24 01:38:45,0.0
6516,-260,18256,-170,134,-165,2024-01-24 01:38:45,0.0
6464,-284,18152,-171,94,-165,2024-01-24 01:38:45,0.0
6412,-204,18120,-162,184,-175,2024-01-24 01:38:45,0.0
6520,-152,18080,-186,231,-150,2024-01-24 01:38:45,0.0
6500,-208,18064,-165,230,-170,2024-01-24 01:38:45,0.0
6488,-224,18224,-157,185,-181,2024-01-24 01:38:45,0.0
6508,-280,18208,-153,224,-177,2024-01-24 01:38:45,0.0
6468,-224,18220,-164,173,-190,2024-01-24 01:38:45,0.0
6348,-188,18120,-148,134,-204,2024-01-24 01:38:45,0.0
6396,-228,18236,-152,124,-168,2024-01-24 01:38:45,0.0
6612,-232,18032,-173,203,-175,2024-01-24 01:38:45,0.0
6552,-340,18024,-165,246,-172,2024-01-24 01:38:45,0.0
6384,-288,18232,-176,160,-185,2024-01-24 01:38:45,0.0
6564,-224,18116,-154,75,-191,2024-01-24 01:38:45,0.0
6552,-252,18000,-172,195,-185,2024-01-24 01:38:45,0.0
6452,-248,17988,-150,274,-181,2024-01-24 01:38:45,0.0
6452,-192,18156,-165,264,-200,2024-01-24 01:38:45,0.0
6300,-372,18108,-128,54,-193,2024-01-24 01:38:45,0.0
6108,-196,17796,-184,116,-164,2024-01-24 01:38:45,0.0
5996,-208,17756,-174,121,-162,2024-01-24 01:38:45,0.0
6488,-384,18208,-167,133,-170,2024-01-24 01:38:45,0.0
6668,-308,18104,-161,103,-193,2024-01-24 01:38:45,0.0
6400,-176,18264,-184,169,-151,2024-01-24 01:38:45,0.0
6492,-308,18128,-178,257,-174,2024-01-24 01:38:45,0.0
6500,-228,18072,-127,254,-157,2024-01-24 01:38:45,0.0
6384,-148,18100,-160,197,-176,2024-01-24 01:38:45,0.0
6456,-280,18176,-160,140,-178,2024-01-24 01:38:46,0.0
6524,-348,18120,-169,163,-164,2024-01-24 01:38:46,0.0
6560,-332,18068,-162,176,-203,2024-01-24 01:38:46,0.0
6448,-236,18184,-165,164,-170,2024-01-24 01:38:46,0.0
6424,-196,18180,-150,202,-166,2024-01-24 01:38:46,0.0
6440,-216,18228,-156,241,-161,2024-01-24 01:38:46,0.0
6388,-228,18224,-191,255,-145,2024-01-24 01:38:46,0.0
6392,-248,18232,-188,151,-186,2024-01-24 01:38:46,0.0
6516,-176,18164,-157,138,-165,2024-01-24 01:38:46,0.0
6420,-264,18160,-190,188,-163,2024-01-24 01:38:46,0.0
6420,-228,18032,-168,226,-170,2024-01-24 01:38:46,0.0
6492,-280,18200,-181,169,-173,2024-01-24 01:38:46,0.0
6588,-248,18088,-160,116,-154,2024-01-24 01:38:46,0.0
6464,-284,18084,-153,176,-194,2024-01-24 01:38:46,0.0
6516,-324,18192,-177,252,-184,2024-01-24 01:38:46,0.0
6388,-348,18172,-171,219,-185,2024-01-24 01:38:46,0.0
6464,-232,18084,-174,142,-165,2024-01-24 01:38:46,0.0
6472,-116,18136,-171,169,-187,2024-01-24 01:38:46,0.0
6528,-308,18064,-204,213,-192,2024-01-24 01:38:46,0.0
6476,-176,18148,-162,204,-170,2024-01-24 01:38:46,0.0
6632,-236,17996,-160,127,-176,2024-01-24 01:38:46,0.0
6612,-284,17952,-169,188,-188,2024-01-24 01:38:46,0.0
6500,-268,18048,-167,193,-178,2024-01-24 01:38:46,0.0
6608,-228,18192,-173,131,-167,2024-01-24 01:38:46,0.0
6488,-272,18184,-193,171,-174,2024-01-24 01:38:46,0.0
6656,-180,18100,-147,235,-168,2024-01-24 01:38:46,0.0
6620,-276,18024,-171,180,-185,2024-01-24 01:38:46,0.0
6520,-316,17960,-163,126,-184,2024-01-24 01:38:46,0.0
6532,-172,17916,-147,117,-193,2024-01-24 01:38:46,0.0
6608,-264,18056,-194,148,-201,2024-01-24 01:38:46,0.0
6456,-176,18172,-167,182,-202,2024-01-24 01:38:46,0.0
6572,-236,17984,-150,196,-192,2024-01-24 01:38:46,0.0
6452,-356,18192,-173,182,-180,2024-01-24 01:38:46,0.0
6492,-320,17988,-184,162,-190,2024-01-24 01:38:46,0.0
6596,-368,18160,-172,177,-197,2024-01-24 01:38:46,0.0
6448,-228,18156,-174,201,-169,2024-01-24 01:38:46,0.0
6444,-252,18172,-165,161,-177,2024-01-24 01:38:46,0.0
6436,-240,18080,-177,160,-179,2024-01-24 01:38:46,0.0
6368,-300,18228,-160,201,-179,2024-01-24 01:38:46,0.0
6496,-340,18128,-177,207,-188,2024-01-24 01:38:46,0.0
6544,-288,17972,-176,158,-196,2024-01-24 01:38:46,0.0
6452,-208,18060,-171,204,-189,2024-01-24 01:38:46,0.0
6604,-216,18164,-159,225,-203,2024-01-24 01:38:46,0.0
6496,-220,18052,-159,232,-185,2024-01-24 01:38:46,0.0
6484,-220,18040,-159,147,-172,2024-01-24 01:38:46,0.0
6580,-356,18040,-184,139,-172,2024-01-24 01:38:46,0.0
6556,-280,17964,-168,171,-194,2024-01-24 01:38:46,0.0
6544,-356,18120,-151,198,-222,2024-01-24 01:38:46,0.0
6416,-252,18040,-171,201,-200,2024-01-24 01:38:46,0.0
6416,-240,18000,-179,251,-169,2024-01-24 01:38:46,0.0
6616,-296,18020,-175,200,-169,2024-01-24 01:38:46,0.0
6444,-164,18092,-174,164,-166,2024-01-24 01:38:46,0.0
6392,-280,18020,-181,129,-195,2024-01-24 01:38:46,0.0
6532,-228,17964,-160,132,-202,2024-01-24 01:38:46,0.0
6324,-184,18140,-171,188,-167,2024-01-24 01:38:46,0.0
6412,-268,18196,-152,194,-168,2024-01-24 01:38:46,0.0
6504,-276,18248,-172,165,-162,2024-01-24 01:38:46,0.0
6524,-232,18144,-153,206,-163,2024-01-24 01:38:46,0.0
6320,-304,18152,-158,208,-184,2024-01-24 01:38:47,0.0
6500,-224,18224,-159,245,-172,2024-01-24 01:38:47,0.0
6492,-224,18060,-190,158,-182,2024-01-24 01:38:47,
6496,-208,18048,-151,125,-175,2024-01-24 01:38:47,0.0
6540,-176,18184,-177,175,-192,2024-01-24 01:38:47,0.0
6528,-264,18108,-170,169,-188,2024-01-24 01:38:47,0.0
6496,-252,18116,-164,218,-164,2024-01-24 01:38:47,0.0
6372,-188,18272,-201,194,-159,2024-01-24 01:38:47,0.0
6448,-260,18028,-157,184,-198,2024-01-24 01:38:47,0.0
6484,-180,18052,-195,175,-198,2024-01-24 01:38:47,0.0
6536,-352,17968,-165,134,-184,2024-01-24 01:38:47,0.0
6584,-268,18096,-170,127,-176,2024-01-24 01:38:47,0.0
6476,-256,18052,-177,177,-172,2024-01-24 01:38:47,0.0
6484,-268,18196,-159,156,-177,2024-01-24 01:38:47,0.0
6416,-252,17988,-179,162,-182,2024-01-24 01:38:47,0.0
6540,-328,18000,-162,159,-189,2024-01-24 01:38:47,0.0
6560,-196,18056,-190,200,-196,2024-01-24 01:38:47,0.0
6388,-272,18236,-131,203,-156,2024-01-24 01:38:47,0.0
6412,-300,17988,-195,177,-195,2024-01-24 01:38:47,0.0
6532,-252,18072,-183,159,-186,2024-01-24 01:38:47,0.0
6412,-284,18304,-160,188,-176,2024-01-24 01:38:47,0.0
6448,-292,18356,-155,199,-173,2024-01-24 01:38:47,0.0
6464,-188,18116,-161,159,-169,2024-01-24 01:38:47,0.0
6432,-272,18156,-174,186,-171,2024-01-24 01:38:47,0.0
6488,-208,18108,-155,203,-171,2024-01-24 01:38:47,0.0
6448,-280,18176,-169,224,-163,2024-01-24 01:38:47,0.0
6484,-216,18148,-181,164,-167,2024-01-24 01:38:47,0.0
6656,-184,17992,-171,169,-203,2024-01-24 01:38:47,0.0
6520,-308,18096,-179,136,-182,2024-01-24 01:38:47,0.0
6452,-292,18048,-179,120,-174,2024-01-24 01:38:47,0.0
6484,-324,18072,-201,155,-195,2024-01-24 01:38:47,0.0
6452,-284,18028,-182,183,-171,2024-01-24 01:38:47,0.0
6568,-292,18016,-196,179,-203,2024-01-24 01:38:47,0.0
6580,-252,18056,-179,191,-181,2024-01-24 01:38:47,0.0
6528,-264,18096,-174,222,-175,2024-01-24 01:38:47,0.0
6468,-252,18092,-178,168,-185,2024-01-24 01:38:47,0.0
6552,-304,18096,-154,155,-188,2024-01-24 01:38:47,0.0
6424,-252,18088,-133,152,-182,2024-01-24 01:38:47,0.0
6500,-216,18132,-162,135,-199,2024-01-24 01:38:47,0.0
6420,-296,17972,-150,202,-173,2024-01-24 01:38:47,0.0
6416,-220,18096,-166,224,-154,2024-01-24 01:38:47,0.0
6364,-236,18316,-162,216,-170,2024-01-24 01:38:47,0.0
6424,-196,18068,-160,171,-184,2024-01-24 01:38:47,0.0
6420,-172,18088,-169,163,-168,2024-01-24 01:38:47,0.0
6500,-304,18132,-163,171,-194,2024-01-24 01:38:47,0.0
6628,-312,18128,-174,199,-200,2024-01-24 01:38:47,0.0
6424,-280,18032,-158,215,-158,2024-01-24 01:38:47,0.0
6456,-228,18280,-181,171,-172,2024-01-24 01:38:47,0.0
6412,-276,18272,-194,183,-196,2024-01-24 01:38:47,0.0
6400,-276,18192,-174,251,-187,2024-01-24 01:38:47,0.0
6380,-216,18176,-153,208,-145,2024-01-24 01:38:47,0.0
6476,-240,18128,-154,204,-189,2024-01-24 01:38:47,0.0
6524,-392,18184,-173,163,-174,2024-01-24 01:38:47,0.0
6440,-340,18328,-153,169,-169,2024-01-24 01:38:47,0.0
6424,-304,18060,-135,201,-149,2024-01-24 01:38:47,0.0
6508,-276,18104,-170,197,-167,2024-01-24 01:38:47,0.0
6484,-308,18184,-149,224,-155,2024-01-24 01:38:47,0.0
6196,-256,18000,-187,42,-184,2024-01-24 01:38:47,0.0
6184,-284,17780,-205,95,-160,2024-01-24 01:38:47,0.0
6388,-472,17952,-189,99,-180,2024-01-24 01:38:47,0.0
6616,-344,18308,-181,201,-177,2024-01-24 01:38:48,0.0
6564,-284,18056,-157,130,-188,2024-01-24 01:38:48,0.0
6428,-256,18044,-168,128,-182,2024-01-24 01:38:48,0.0
6568,-304,18304,-177,169,-172,2024-01-24 01:38:48,0.0
6492,-252,17984,-158,189,-179,2024-01-24 01:38:48,0.0
6400,-276,18116,-187,172,-161,2024-01-24 01:38:48,0.0
6508,-204,18100,-180,214,-183,2024-01-24 01:38:48,0.0
6404,-236,18156,-175,217,-165,2024-01-24 01:38:48,0.0
6380,-252,18040,-141,219,-185,2024-01-24 01:38:48,0.0
6368,-208,18084,-148,236,-192,2024-01-24 01:38:48,0.0
6448,-208,18092,-176,140,-168,2024-01-24 01:38:48,0.0
6560,-296,18164,-159,115,-183,2024-01-24 01:38:48,0.0
6380,-268,18128,-161,134,-178,2024-01-24 01:38:48,0.0
6476,-212,18172,-150,138,-188,2024-01-24 01:38:48,0.0
6496,-176,18148,-194,229,-158,2024-01-24 01:38:48,0.0
6840,-392,18388,-140,388,-219,2024-01-24 01:38:48,0.0
6684,-280,18196,-155,355,-193,2024-01-24 01:38:48,0.0
6260,-80,18056,-173,280,-169,2024-01-24 01:38:48,0.0
6492,-256,17936,-176,103,-179,2024-01-24 01:38:48,0.0
6596,-276,17964,-155,89,-201,2024-01-24 01:38:48,0.0
6328,-168,17904,-164,122,-176,2024-01-24 01:38:48,0.0
6484,-168,18060,-148,250,-181,2024-01-24 01:38:48,0.0
6476,-312,18120,-163,251,-193,2024-01-24 01:38:48,0.0
6596,-320,18112,-149,167,-164,2024-01-24 01:38:48,0.0
6552,-288,17976,-190,145,-197,2024-01-24 01:38:48,0.0
6500,-200,18008,-159,154,-194,2024-01-24 01:38:48,0.0
6500,-336,17956,-167,201,-196,2024-01-24 01:38:48,0.0
6380,-276,18048,-181,184,-204,2024-01-24 01:38:48,0.0
6412,-284,18204,-147,174,-172,2024-01-24 01:38:48,0.0
6472,-328,18204,-177,143,-159,2024-01-24 01:38:48,0.0
6428,-260,18120,-186,182,-171,2024-01-24 01:38:48,0.0
6636,-220,18052,-183,208,-201,2024-01-24 01:38:48,0.0
6556,-240,18104,-163,270,-181,2024-01-24 01:38:48,0.0
6416,-216,18120,-161,184,-186,2024-01-24 01:38:48,0.0
6300,-236,18232,-156,151,-175,2024-01-24 01:38:48,0.0
6464,-124,18004,-162,158,-156,2024-01-24 01:38:48,0.0
6504,-240,18096,-159,186,-195,2024-01-24 01:38:48,0.0
6468,-316,18076,-149,208,-171,2024-01-24 01:38:48,0.0
6380,-260,18304,-164,216,-171,2024-01-24 01:38:48,0.0
6368,-276,18172,-172,192,-159,2024-01-24 01:38:48,0.0
6456,-236,18176,-157,192,-200,2024-01-24 01:38:48,0.0
6440,-192,18116,-192,262,-177,2024-01-24 01:38:48,0.0
6320,-244,18164,-191,274,-172,2024-01-24 01:38:48,
6492,-248,18044,-170,154,-174,2024-01-24 01:38:48,0.0
6452,-196,18104,-177,148,-167,2024-01-24 01:38:48,0.0
6440,-152,18176,-175,144,-166,2024-01-24 01:38:48,0.0
6428,-240,18156,-180,172,-180,2024-01-24 01:38:48,0.0
6592,-280,18208,-174,153,-164,2024-01-24 01:38:48,0.0
6468,-236,17960,-158,166,-191,2024-01-24 01:38:48,0.0
6500,-244,17984,-175,165,-164,2024-01-24 01:38:48,0.0
6376,-208,18220,-151,256,-163,2024-01-24 01:38:48,0.0
6504,-376,18008,-175,202,-198,2024-01-24 01:38:48,0.0
6432,-200,18032,-155,144,-174,2024-01-24 01:38:48,0.0
6544,-220,17960,-177,69,-191,2024-01-24 01:38:48,0.0
6628,-148,17960,-160,127,-185,2024-01-24 01:38:48,0.0
6508,-360,17920,-178,163,-212,2024-01-24 01:38:48,0.0
6464,-336,17948,-161,166,-171,2024-01-24 01:38:48,0.0
6480,-344,17932,-189,191,-192,2024-01-24 01:38:48,0.0
6688,-288,18116,-188,159,-186,2024-01-24 01:38:48,0.0
6372,-272,18260,-155,201,-167,2024-01-24 01:38:49,0.0
6388,-252,18204,-182,187,-165,2024-01-24 01:38:49,0.0
6484,-236,18148,-171,150,-188,2024-01-24 01:38:49,0.0
6396,-348,18232,-177,144,-168,2024-01-24 01:38:49,0.0
6432,-260,18136,-156,181,-179,2024-01-24 01:38:49,0.0
6456,-232,18072,-171,223,-158,2024-01-24 01:38:49,0.0
6520,-340,18164,-178,219,-194,2024-01-24 01:38:49,0.0
6508,-288,17916,-166,204,-194,2024-01-24 01:38:49,0.0
6380,-128,18320,-201,206,-174,2024-01-24 01:38:49,0.0
6212,-140,18424,-136,169,-182,2024-01-24 01:38:49,0.0
6484,-284,18084,-159,191,-182,2024-01-24 01:38:49,0.0
6432,-260,18220,-185,199,-186,2024-01-24 01:38:49,0.0
6468,-232,18356,-176,168,-177,2024-01-24 01:38:49,0.0
6440,-204,18220,-153,182,-156,2024-01-24 01:38:49,0.0
6416,-344,18272,-159,227,-178,2024-01-24 01:38:49,0.0
6468,-208,18124,-174,207,-186,2024-01-24 01:38:49,0.0
6416,-360,18064,-158,139,-186,2024-01-24 01:38:49,0.0
6548,-224,18060,-141,168,-203,2024-01-24 01:38:49,0.0
6484,-276,18096,-184,203,-175,2024-01-24 01:38:49,0.0
6452,-244,18120,-185,150,-186,2024-01-24 01:38:49,0.0
6476,-284,18168,-175,149,-175,2024-01-24 01:38:49,0.0
6664,-300,18012,-171,160,-183,2024-01-24 01:38:49,0.0
6616,-344,18064,-182,200,-179,2024-01-24 01:38:49,0.0
6484,-216,18168,-160,177,-186,2024-01-24 01:38:49,0.0
6496,-260,17944,-172,155,-204,2024-01-24 01:38:49,0.0
6400,-264,18216,-180,207,-159,2024-01-24 01:38:49,0.0
6444,-356,18132,-167,203,-158,2024-01-24 01:38:49,0.0
6388,-188,18248,-165,200,-181,2024-01-24 01:38:49,0.0
6388,-196,18280,-154,185,-153,2024-01-24 01:38:49,0.0
6472,-312,18204,-160,144,-169,2024-01-24 01:38:49,0.0
6584,-204,18128,-172,146,-211,2024-01-24 01:38:49,0.0
6528,-292,18056,-185,194,-194,2024-01-24 01:38:49,0.0
6496,-344,17996,-181,200,-178,2024-01-24 01:38:49,0.0
6508,-244,18084,-154,230,-188,2024-01-24 01:38:49,0.0
6464,-292,17992,-186,139,-158,2024-01-24 01:38:49,0.0
6488,-320,18088,-194,124,-198,2024-01-24 01:38:49,0.0
6344,-232,18216,-142,168,-177,2024-01-24 01:38:49,0.0
6504,-292,18052,-185,177,-176,2024-01-24 01:38:49,0.0
6456,-216,18168,-170,151,-189,2024-01-24 01:38:49,0.0
6416,-172,18036,-166,198,-198,2024-01-24 01:38:49,0.0
6392,-216,18224,-176,191,-183,2024-01-24 01:38:49,0.0
6420,-316,18152,-164,226,-186,2024-01-24 01:38:49,0.0
6348,-220,18044,-182,158,-197,2024-01-24 01:38:49,0.0
6368,-148,18128,-178,132,-158,2024-01-24 01:38:49,0.0
6512,-212,18216,-190,102,-159,2024-01-24 01:38:49,0.0
6528,-204,18088,-170,131,-169,2024-01-24 01:38:49,0.0
6544,-340,17904,-195,195,-166,2024-01-24 01:38:49,0.0
6432,-152,18048,-146,223,-194,2024-01-24 01:38:49,0.0
6548,-284,18160,-160,186,-181,2024-01-24 01:38:49,0.0
6388,-372,18060,-169,135,-170,2024-01-24 01:38:49,0.0
6492,-292,18044,-161,180,-164,2024-01-24 01:38:49,0.0
6528,-228,18060,-168,173,-203,2024-01-24 01:38:49,0.0
6424,-260,18068,-144,147,-206,2024-01-24 01:38:49,0.0
6492,-208,17896,-192,136,-181,2024-01-24 01:38:49,0.0
6420,-340,18076,-171,203,-183,2024-01-24 01:38:49,0.0
6396,-200,18148,-156,223,-145,2024-01-24 01:38:49,0.0
6476,-268,18152,-160,238,-176,2024-01-24 01:38:49,0.0
6460,-320,18132,-166,195,-165,2024-01-24 01:38:49,0.0
6544,-192,18184,-169,182,-164,2024-01-24 01:38:50,0.0
6440,-208,18092,-196,207,-177,2024-01-24 01:38:50,0.0
6548,-212,18160,-164,162,-183,2024-01-24 01:38:50,0.0
6492,-120,18140,-126,152,-164,2024-01-24 01:38:50,0.0
6492,-228,18096,-171,148,-171,2024-01-24 01:38:50,0.0
6448,-272,18192,-180,190,-189,2024-01-24 01:38:50,0.0
6432,-204,18228,-150,212,-175,2024-01-24 01:38:50,0.0
6500,-264,18088,-150,218,-164,2024-01-24 01:38:50,0.0
6496,-236,18060,-180,213,-163,2024-01-24 01:38:50,0.0
6516,-228,18184,-198,166,-170,2024-01-24 01:38:50,0.0
6528,-332,18216,-183,170,-198,2024-01-24 01:38:50,0.0
6484,-328,18084,-167,199,-188,2024-01-24 01:38:50,0.0
6564,-280,17968,-203,172,-179,2024-01-24 01:38:50,0.0
6460,-324,18212,-161,130,-173,2024-01-24 01:38:50,0.0
6512,-296,17980,-158,110,-180,2024-01-24 01:38:50,0.0
6512,-312,17932,-174,158,-188,2024-01-24 01:38:50,0.0
6516,-348,18124,-179,253,-186,2024-01-24 01:38:50,0.0
6404,-244,18164,-164,251,-156,2024-01-24 01:38:50,0.0
6340,-268,18240,-152,131,-169,2024-01-24 01:38:50,0.0
6528,-244,18304,-170,116,-163,2024-01-24 01:38:50,0.0
6320,-288,18248,-185,219,-183,2024-01-24 01:38:50,0.0
6444,-172,18152,-177,252,-148,2024-01-24 01:38:50,0.0
6440,-276,18172,-171,228,-166,2024-01-24 01:38:50,0.0
6492,-240,18168,-160,194,-169,2024-01-24 01:38:50,0.0
6488,-296,18140,-181,193,-192,2024-01-24 01:38:50,0.0
6392,-248,18132,-167,208,-177,2024-01-24 01:38:50,
6552,-252,18080,-180,137,-176,2024-01-24 01:38:50,0.0
6552,-196,18104,-165,140,-182,2024-01-24 01:38:50,0.0
6424,-268,18028,-145,186,-167,2024-01-24 01:38:50,0.0
6448,-244,18260,-166,219,-173,2024-01-24 01:38:50,0.0
6468,-172,18192,-157,198,-173,2024-01-24 01:38:50,0.0
6432,-272,18244,-164,153,-163,2024-01-24 01:38:50,0.0
6408,-244,18204,-184,161,-161,2024-01-24 01:38:50,0.0
6528,-244,18188,-179,187,-196,2024-01-24 01:38:50,0.0
6552,-268,18168,-150,159,-168,2024-01-24 01:38:50,0.0
6580,-252,18032,-163,129,-174,2024-01-24 01:38:50,0.0
6516,-152,17988,-152,153,-197,2024-01-24 01:38:50,0.0
6528,-248,18144,-158,182,-184,2024-01-24 01:38:50,0.0
6472,-416,17956,-172,194,-207,2024-01-24 01:38:50,0.0
6580,-324,18032,-189,171,-217,2024-01-24 01:38:50,0.0
6508,-272,17964,-159,206,-183,2024-01-24 01:38:50,0.0
6400,-188,18136,-180,218,-179,2024-01-24 01:38:50,0.0
6388,-252,18168,-160,172,-174,2024-01-24 01:38:50,0.0
6436,-280,18260,-182,158,-171,2024-01-24 01:38:50,0.0
6436,-312,18108,-175,207,-168,2024-01-24 01:38:50,0.0
6392,-200,18232,-136,202,-161,2024-01-24 01:38:50,0.0
6432,-196,18200,-182,205,-170,2024-01-24 01:38:50,0.0
6408,-176,18316,-151,200,-185,2024-01-24 01:38:50,0.0
6416,-260,18180,-147,247,-180,2024-01-24 01:38:50,0.0
6508,-196,18248,-125,225,-170,2024-01-24 01:38:50,0.0
6576,-232,18096,-188,166,-190,2024-01-24 01:38:50,0.0
6400,-236,18020,-207,147,-180,2024-01-24 01:38:50,0.0
6512,-216,18024,-149,142,-178,2024-01-24 01:38:50,0.0
6536,-188,18096,-170,157,-179,2024-01-24 01:38:50,0.0
6444,-312,17976,-166,186,-191,2024-01-24 01:38:50,0.0
6576,-320,18024,-203,170,-193,2024-01-24 01:38:50,0.0
6516,-232,18008,-172,201,-150,2024-01-24 01:38:50,0.0
6460,-264,18132,-148,249,-168,2024-01-24 01:38:50,0.0
6472,-300,18072,-171,197,-190,2024-01-24 01:38:50,0.0
6456,-288,17988,-165,158,-180,2024-01-24 01:38:51,0.0
6484,-308,18112,-152,92,-194,2024-01-24 01:38:51,0.0
6488,-232,18128,-162,173,-188,2024-01-24 01:38:51,0.0
6384,-288,18204,-164,240,-159,2024-01-24 01:38:51,0.0
6456,-296,18084,-170,223,-203,2024-01-24 01:38:51,0.0
6384,-232,18200,-158,221,-161,2024-01-24 01:38:51,0.0
6456,-248,18200,-175,192,-185,2024-01-24 01:38:51,0.0
6448,-116,18148,-146,174,-181,2024-01-24 01:38:51,0.0
6540,-232,18024,-173,186,-164,2024-01-24 01:38:51,0.0
6444,-236,18100,-196,150,-189,2024-01-24 01:38:51,0.0
6388,-228,18040,-191,153,-176,2024-01-24 01:38:51,0.0
6496,-252,18136,-192,177,-203,2024-01-24 01:38:51,0.0
6484,-152,18288,-155,206,-173,2024-01-24 01:38:51,0.0
6396,-232,18288,-161,222,-175,2024-01-24 01:38:51,0.0
6460,-252,18352,-158,215,-173,2024-01-24 01:38:51,0.0
6380,-268,18036,-186,181,-181,2024-01-24 01:38:51,0.0
6432,-196,18072,-165,150,-182,2024-01-24 01:38:51,0.0
6440,-280,18080,-182,144,-180,2024-01-24 01:38:51,0.0
6492,-348,18172,-175,185,-168,2024-01-24 01:38:51,0.0
6424,-264,18024,-177,209,-153,2024-01-24 01:38:51,0.0
6456,-316,18088,-155,172,-191,2024-01-24 01:38:51,0.0
6432,-260,18252,-151,193,-159,2024-01-24 01:38:51,0.0
6424,-256,18148,-152,202,-168,2024-01-24 01:38:51,0.0
6476,-320,18164,-156,212,-151,2024-01-24 01:38:51,0.0
6452,-284,18228,-171,210,-174,2024-01-24 01:38:51,0.0
6444,-232,18148,-151,182,-162,2024-01-24 01:38:51,0.0
6516,-240,18168,-140,178,-146,2024-01-24 01:38:51,0.0
6476,-292,18012,-193,143,-200,2024-01-24 01:38:51,0.0
6564,-296,18140,-160,174,-179,2024-01-24 01:38:51,0.0
6504,-232,18116,-179,195,-163,2024-01-24 01:38:51,0.0
6396,-280,18104,-177,219,-156,2024-01-24 01:38:51,0.0
6416,-232,18216,-189,228,-169,2024-01-24 01:38:51,0.0
6520,-224,18032,-170,175,-178,2024-01-24 01:38:51,0.0
6468,-240,18024,-154,172,-160,2024-01-24 01:38:51,0.0
6516,-260,18104,-142,181,-203,2024-01-24 01:38:51,0.0
6372,-256,18048,-149,173,-174,2024-01-24 01:38:51,0.0
6440,-244,18068,-171,181,-162,2024-01-24 01:38:51,0.0
6464,-304,18136,-142,199,-188,2024-01-24 01:38:51,0.0
6436,-264,18132,-179,191,-181,2024-01-24 01:38:51,0.0
6372,-292,18040,-147,231,-151,2024-01-24 01:38:51,0.0
6364,-340,18212,-143,201,-193,2024-01-24 01:38:51,0.0
6436,-180,18092,-171,201,-180,2024-01-24 01:38:51,0.0
6512,-256,18164,-142,157,-171,2024-01-24 01:38:51,0.0
6360,-276,18128,-148,151,-175,2024-01-24 01:38:51,0.0
6440,-364,17968,-151,214,-165,2024-01-24 01:38:51,0.0
6552,-168,18076,-151,218,-173,2024-01-24 01:38:51,0.0
6396,-264,18140,-134,201,-161,2024-01-24 01:38:51,0.0
6532,-248,18124,-176,205,-158,2024-01-24 01:38:51,0.0
6400,-136,18316,-168,185,-169,2024-01-24 01:38:51,0.0
6556,-240,18296,-159,205,-163,2024-01-24 01:38:51,0.0
6356,-212,18148,-157,196,-173,2024-01-24 01:38:51,0.0
6428,-232,18132,-164,188,-177,2024-01-24 01:38:51,0.0
6432,-200,18096,-164,166,-180,2024-01-24 01:38:51,0.0
6572,-244,18072,-138,144,-204,2024-01-24 01:38:51,0.0
6484,-256,18080,-157,185,-186,2024-01-24 01:38:51,0.0
6520,-264,17940,-173,214,-185,2024-01-24 01:38:51,0.0
6564,-232,18036,-173,174,-208,2024-01-24 01:38:51,0.0
6476,-320,18204,-148,169,-167,2024-01-24 01:38:51,0.0
6456,-256,18096,-153,145,-182,2024-01-24 01:38:52,0.0
6516,-344,18080,-179,181,-172,2024-01-24 01:38:52,0.0
6496,-276,17944,-135,135,-180,2024-01-24 01:38:52,0.0
6632,-264,18060,-143,184,-200,2024-01-24 01:38:52,0.0
6448,-352,18112,-166,200,-173,2024-01-24 01:38:52,0.0
6376,-236,18032,-195,196,-176,2024-01-24 01:38:52,0.0
6444,-304,18124,-171,180,-169,2024-01-24 01:38:52,0.0
6408,-264,18268,-176,192,-178,2024-01-24 01:38:52,0.0
6464,-276,18108,-176,158,-178,2024-01-24 01:38:52,
6464,-252,18160,-154,192,-172,2024-01-24 01:38:52,0.0
6420,-312,18144,-185,176,-190,2024-01-24 01:38:52,0.0
6480,-304,18140,-157,202,-190,2024-01-24 01:38:52,0.0
6432,-240,18128,-159,217,-162,2024-01-24 01:38:52,0.0
6448,-268,18084,-155,205,-183,2024-01-24 01:38:52,0.0
6444,-288,18020,-146,177,-183,2024-01-24 01:38:52,0.0
6476,-200,18220,-157,173,-197,2024-01-24 01:38:52,0.0
6512,-100,18208,-169,223,-171,2024-01-24 01:38:52,0.0
6404,-164,18104,-178,214,-159,2024-01-24 01:38:52,0.0
6396,-192,18164,-174,201,-164,2024-01-24 01:38:52,0.0
6472,-204,18228,-151,137,-163,2024-01-24 01:38:52,0.0
6528,-300,18208,-158,179,-205,2024-01-24 01:38:52,0.0
6380,-236,18188,-173,215,-185,2024-01-24 01:38:52,0.0
6452,-236,18120,-174,195,-187,2024-01-24 01:38:52,0.0
6440,-248,18176,-155,229,-180,2024-01-24 01:38:52,0.0
6408,-232,18212,-134,190,-155,2024-01-24 01:38:52,0.0
6364,-292,18120,-129,187,-164,2024-01-24 01:38:52,0.0
6428,-208,18148,-196,201,-146,2024-01-24 01:38:52,0.0
6488,-252,18128,-161,187,-167,2024-01-24 01:38:52,0.0
6528,-232,18108,-163,190,-187,2024-01-24 01:38:52,0.0
6352,-188,18116,-174,198,-169,2024-01-24 01:38:52,0.0
6568,-204,18216,-151,169,-172,2024-01-24 01:38:52,0.0
6604,-256,17940,-158,181,-175,2024-01-24 01:38:52,0.0
6448,-224,18140,-155,221,-167,2024-01-24 01:38:52,0.0
6504,-144,18148,-168,216,-175,2024-01-24 01:38:52,0.0
6376,-228,18224,-146,198,-170,2024-01-24 01:38:52,0.0
6528,-264,18184,-150,148,-155,2024-01-24 01:38:52,0.0
6536,-256,18032,-166,155,-180,2024-01-24 01:38:52,0.0
6476,-188,18212,-162,207,-177,2024-01-24 01:38:52,0.0
6388,-276,18168,-130,212,-188,2024-01-24 01:38:52,0.0
6496,-304,18020,-177,171,-200,2024-01-24 01:38:52,0.0
6424,-280,18264,-179,172,-180,2024-01-24 01:38:52,0.0
6436,-304,18080,-183,185,-164,2024-01-24 01:38:52,0.0
6628,-344,18000,-187,176,-184,2024-01-24 01:38:52,0.0
6508,-232,18180,-193,174,-165,2024-01-24 01:38:52,0.0
6528,-204,18132,-139,197,-156,2024-01-24 01:38:52,0.0
6440,-176,18064,-179,180,-166,2024-01-24 01:38:52,0.0
6476,-208,18076,-203,175,-185,2024-01-24 01:38:52,0.0
6504,-332,18056,-171,177,-183,2024-01-24 01:38:52,0.0
6464,-220,18228,-148,185,-184,2024-01-24 01:38:52,0.0
6408,-312,18000,-198,163,-190,2024-01-24 01:38:52,0.0
6440,-208,18096,-172,143,-197,2024-01-24 01:38:52,0.0
6436,-260,18020,-182,189,-194,2024-01-24 01:38:52,0.0
6452,-284,18052,-168,171,-189,2024-01-24 01:38:52,0.0
6564,-304,17920,-194,164,-175,2024-01-24 01:38:52,0.0
6416,-332,17996,-186,202,-181,2024-01-24 01:38:52,0.0
6424,-208,18192,-175,186,-159,2024-01-24 01:38:52,0.0
6420,-292,18216,-172,194,-182,2024-01-24 01:38:52,0.0
6488,-212,18188,-184,185,-177,2024-01-24 01:38:52,0.0
6476,-284,18128,-192,225,-177,2024-01-24 01:38:52,0.0
6480,-284,18140,-163,218,-186,2024-01-24 01:38:52,0.0
6476,-144,18008,-161,175,-184,2024-01-24 01:38:53,0.0
6452,-212,18068,-167,205,-187,2024-01-24 01:38:53,0.0
6424,-224,18056,-173,175,-169,2024-01-24 01:38:53,0.0
6484,-192,18200,-160,191,-137,2024-01-24 01:38:53,0.0
6456,-168,18232,-173,208,-181,2024-01-24 01:38:53,0.0
6456,-176,18232,-163,208,-172,2024-01-24 01:38:53,0.0
6536,-196,17892,-171,168,-171,2024-01-24 01:38:53,0.0
6464,-316,18088,-201,155,-192,2024-01-24 01:38:53,0.0
6516,-240,18196,-175,179,-181,2024-01-24 01:38:53,0.0
6432,-276,18172,-161,174,-157,2024-01-24 01:38:53,0.0
6516,-340,18188,-158,159,-212,2024-01-24 01:38:53,0.0
6552,-152,18212,-170,185,-181,2024-01-24 01:38:53,0.0
6484,-220,18004,-186,177,-183,2024-01-24 01:38:53,0.0
6532,-332,17920,-175,167,-185,2024-01-24 01:38:53,0.0
6480,-236,18040,-167,115,-182,2024-01-24 01:38:53,0.0
6460,-244,18140,-157,180,-159,2024-01-24 01:38:53,0.0
6496,-188,17952,-168,180,-153,2024-01-24 01:38:53,0.0
6564,-236,18048,-153,170,-176,2024-01-24 01:38:53,0.0
6584,-124,18004,-180,149,-182,2024-01-24 01:38:53,0.0
6484,-288,18252,-144,191,-176,2024-01-24 01:38:53,0.0
6540,-352,18132,-190,151,-190,2024-01-24 01:38:53,0.0
6596,-352,18140,-189,145,-200,2024-01-24 01:38:53,0.0
6436,-276,18068,-192,191,-224,2024-01-24 01:38:53,0.0
6568,-280,17976,-142,198,-180,2024-01-24 01:38:53,0.0
6512,-296,18124,-183,214,-182,2024-01-24 01:38:53,0.0
6420,-140,18108,-161,211,-171,2024-01-24 01:38:53,0.0
6404,-156,18084,-169,185,-179,2024-01-24 01:38:53,0.0
6456,-308,18144,-165,188,-187,2024-01-24 01:38:53,0.0
6344,-228,18112,-138,205,-186,2024-01-24 01:38:53,0.0
6424,-228,18224,-152,176,-169,2024-01-24 01:38:53,0.0
6412,-192,18324,-183,181,-168,2024-01-24 01:38:53,0.0
6432,-268,17964,-165,210,-186,2024-01-24 01:38:53,0.0
6516,-252,18064,-177,213,-189,2024-01-24 01:38:53,0.0
6432,-260,18316,-170,164,-177,2024-01-24 01:38:53,0.0
6508,-320,18108,-169,100,-189,2024-01-24 01:38:53,0.0
6496,-188,18052,-204,98,-182,2024-01-24 01:38:53,0.0
6504,-264,18168,-173,179,-177,2024-01-24 01:38:53,0.0
6468,-292,18100,-174,242,-189,2024-01-24 01:38:53,0.0
6536,-144,18144,-159,238,-187,2024-01-24 01:38:53,0.0
6484,-216,18044,-152,161,-162,2024-01-24 01:38:53,0.0
6416,-328,18172,-173,173,-184,2024-01-24 01:38:53,0.0
6488,-312,17928,-166,142,-196,2024-01-24 01:38:53,0.0
6440,-196,18096,-157,222,-174,2024-01-24 01:38:53,0.0
6448,-184,18140,-174,213,-160,2024-01-24 01:38:53,0.0
6452,-320,18212,-166,170,-156,2024-01-24 01:38:53,0.0
6496,-272,18324,-161,198,-153,2024-01-24 01:38:53,0.0
6412,-252,18180,-159,203,-179,2024-01-24 01:38:53,0.0
6440,-304,18384,-165,162,-184,2024-01-24 01:38:53,0.0
6524,-216,18172,-177,154,-174,2024-01-24 01:38:53,
6496,-184,17952,-157,172,-152,2024-01-24 01:38:53,0.0
6436,-304,18096,-179,206,-149,2024-01-24 01:38:53,0.0
6420,-228,18248,-153,200,-180,2024-01-24 01:38:53,0.0
6564,-256,18064,-169,137,-161,2024-01-24 01:38:53,0.0
6392,-300,18132,-146,163,-159,2024-01-24 01:38:53,0.0
6544,-232,18136,-153,200,-160,2024-01-24 01:38:53,0.0
6548,-328,18212,-179,213,-181,2024-01-24 01:38:53,0.0
6460,-228,18272,-194,204,-203,2024-01-24 01:38:53,0.0
6416,-244,18100,-186,162,-172,2024-01-24 01:38:53,0.0
6560,-348,18096,-145,170,-180,2024-01-24 01:38:53,0.0
6496,-304,18212,-170,206,-168,2024-01-24 01:38:54,0.0
6432,-196,18052,-193,203,-206,2024-01-24 01:38:54,0.0
6360,-284,18108,-170,176,-172,2024-01-24 01:38:54,0.0
6368,-276,18096,-153,176,-163,2024-01-24 01:38:54,0.0
6272,-232,18100,-139,204,-147,2024-01-24 01:38:54,0.0
6440,-256,18076,-154,210,-186,2024-01-24 01:38:54,0.0
6380,-204,18164,-165,191,-152,2024-01-24 01:38:54,0.0
6416,-300,18112,-141,215,-183,2024-01-24 01:38:54,0.0
6488,-268,18140,-157,200,-200,2024-01-24 01:38:54,0.0
6520,-264,18052,-173,179,-192,2024-01-24 01:38:54,0.0
6432,-216,18172,-151,174,-186,2024-01-24 01:38:54,0.0
6532,-252,18312,-171,204,-206,2024-01-24 01:38:54,0.0
6344,-212,18144,-167,206,-162,2024-01-24 01:38:54,0.0
6536,-252,18096,-150,190,-183,2024-01-24 01:38:54,0.0
6536,-180,18140,-162,173,-199,2024-01-24 01:38:54,0.0
6492,-216,18068,-178,161,-165,2024-01-24 01:38:54,0.0
6484,-268,18188,-173,160,-190,2024-01-24 01:38:54,0.0
6372,-204,17940,-168,175,-188,2024-01-24 01:38:54,0.0
6476,-372,18100,-164,190,-168,2024-01-24 01:38:54,0.0
6564,-264,18032,-180,166,-192,2024-01-24 01:38:54,0.0
6512,-240,18112,-190,125,-192,2024-01-24 01:38:54,0.0
6536,-288,18064,-168,131,-190,2024-01-24 01:38:54,0.0
6484,-228,18060,-181,193,-188,2024-01-24 01:38:54,0.0
6500,-256,18204,-171,200,-195,2024-01-24 01:38:54,0.0
6588,-188,18120,-188,214,-210,2024-01-24 01:38:54,0.0
6388,-232,18172,-166,178,-193,2024-01-24 01:38:54,0.0
6332,-236,18276,-166,157,-198,2024-01-24 01:38:54,0.0
6416,-212,18136,-161,181,-174,2024-01-24 01:38:54,0.0
6484,-324,17916,-173,172,-178,2024-01-24 01:38:54,0.0
6584,-276,18060,-168,180,-201,2024-01-24 01:38:54,0.0
6440,-332,18048,-155,169,-174,2024-01-24 01:38:54,0.0
6512,-320,17932,-189,136,-171,2024-01-24 01:38:54,0.0
6424,-348,18108,-174,206,-210,2024-01-24 01:38:54,0.0
6520,-268,18116,-186,198,-197,2024-01-24 01:38:54,0.0
6500,-188,18324,-184,208,-164,2024-01-24 01:38:54,0.0
6444,-208,18204,-202,164,-163,2024-01-24 01:38:54,0.0
6508,-244,18244,-166,176,-146,2024-01-24 01:38:54,0.0
6676,-264,18096,-173,140,-171,2024-01-24 01:38:54,0.0
6588,-364,18052,-174,170,-198,2024-01-24 01:38:54,0.0
6520,-168,17948,-154,191,-195,2024-01-24 01:38:54,0.0
6588,-312,18020,-171,164,-198,2024-01-24 01:38:54,0.0
6564,-284,18100,-164,170,-165,2024-01-24 01:38:54,0.0
6508,-356,18072,-151,153,-189,2024-01-24 01:38:54,0.0
6360,-252,18296,-158,201,-168,2024-01-24 01:38:54,0.0
6384,-204,18216,-179,188,-178,2024-01-24 01:38:54,0.0
6504,-300,18096,-181,162,-188,2024-01-24 01:38:54,0.0
6580,-252,18128,-148,156,-184,2024-01-24 01:38:54,0.0
6504,-280,18152,-180,165,-194,2024-01-24 01:38:54,0.0
6440,-376,18148,-140,212,-181,2024-01-24 01:38:54,0.0
6456,-328,18280,-157,232,-170,2024-01-24 01:38:54,0.0
6428,-320,18152,-183,160,-175,2024-01-24 01:38:54,0.0
6420,-368,18264,-190,184,-170,2024-01-24 01:38:54,0.0
6416,-248,18152,-149,218,-147,2024-01-24 01:38:54,0.0
6372,-156,18096,-149,232,-157,2024-01-24 01:38:54,0.0
6492,-288,18304,-134,168,-185,2024-01-24 01:38:54,0.0
6356,-252,18072,-163,179,-165,2024-01-24 01:38:54,0.0
6440,-248,18240,-177,171,-175,2024-01-24 01:38:54,0.0
6452,-284,18076,-193,181,-215,2024-01-24 01:38:54,0.0
6492,-168,18008,-179,175,-187,2024-01-24 01:38:55,0.0
6440,-260,18036,-190,171,-188,2024-01-24 01:38:55,0.0
6524,-236,18044,-189,135,-180,2024-01-24 01:38:55,0.0
6532,-228,18148,-158,150,-185,2024-01-24 01:38:55,0.0
6492,-228,18068,-191,175,-171,2024-01-24 01:38:55,0.0
6500,-236,18236,-160,212,-190,2024-01-24 01:38:55,0.0
6640,-312,17964,-167,170,-179,2024-01-24 01:38:55,0.0
6548,-292,17912,-179,219,-200,2024-01-24 01:38:55,0.0
6472,-308,18020,-144,208,-155,2024-01-24 01:38:55,0.0
6368,-224,18356,-173,218,-196,2024-01-24 01:38:55,0.0
6352,-256,18204,-167,200,-179,2024-01-24 01:38:55,0.0
6468,-196,18132,-167,225,-151,2024-01-24 01:38:55,0.0
6396,-332,18052,-150,178,-193,2024-01-24 01:38:55,0.0
6520,-240,18084,-141,155,-185,2024-01-24 01:38:55,0.0
6420,-284,18116,-185,182,-166,2024-01-24 01:38:55,0.0
6400,-308,18108,-174,227,-154,2024-01-24 01:38:55,0.0
6388,-336,17984,-167,190,-186,2024-01-24 01:38:55,0.0
6416,-260,17896,-161,150,-178,2024-01-24 01:38:55,0.0
6472,-260,17984,-184,161,-180,2024-01-24 01:38:55,0.0
6456,-216,18076,-197,185,-162,2024-01-24 01:38:55,0.0
6516,-244,18100,-154,175,-171,2024-01-24 01:38:55,0.0
6532,-336,17896,-197,141,-193,2024-01-24 01:38:55,0.0
6576,-292,18076,-186,167,-189,2024-01-24 01:38:55,0.0
6480,-260,18160,-176,118,-184,2024-01-24 01:38:55,0.0
6488,-320,17944,-197,136,-198,2024-01-24 01:38:55,0.0
6572,-412,18104,-160,194,-195,2024-01-24 01:38:55,0.0
6536,-328,18024,-130,181,-178,2024-01-24 01:38:55,0.0
6372,-288,18120,-160,206,-173,2024-01-24 01:38:55,0.0
6512,-236,18264,-166,173,-176,2024-01-24 01:38:55,0.0
6320,-252,18288,-154,170,-187,2024-01-24 01:38:55,0.0
6220,-240,17968,-176,158,-175,2024-01-24 01:38:55,0.0
6472,-304,18184,-144,194,-193,2024-01-24 01:38:55,
6440,-236,18204,-150,216,-179,2024-01-24 01:38:55,0.0
6432,-232,18172,-163,194,-179,2024-01-24 01:38:55,0.0
6580,-184,18208,-177,149,-167,2024-01-24 01:38:55,0.0
6488,-216,18112,-179,190,-157,2024-01-24 01:38:55,0.0
6512,-148,18148,-183,181,-174,2024-01-24 01:38:55,0.0
6532,-120,18048,-192,151,-187,2024-01-24 01:38:55,0.0
6588,-284,18088,-188,173,-176,2024-01-24 01:38:55,0.0
6512,-252,17880,-172,184,-193,2024-01-24 01:38:55,0.0
6564,-240,18076,-189,225,-189,2024-01-24 01:38:55,0.0
6504,-272,18076,-193,132,-185,2024-01-24 01:38:55,0.0
6532,-332,18164,-176,120,-201,2024-01-24 01:38:55,0.0
6456,-192,18120,-175,126,-174,2024-01-24 01:38:55,0.0
6580,-344,18060,-162,157,-178,2024-01-24 01:38:55,0.0
6396,-228,18048,-172,203,-171,2024-01-24 01:38:55,0.0
6456,-280,18212,-197,185,-174,2024-01-24 01:38:55,0.0
6424,-264,18176,-175,169,-167,2024-01-24 01:38:55,0.0
6488,-340,18080,-190,189,-182,2024-01-24 01:38:55,0.0
6428,-256,18172,-161,215,-178,2024-01-24 01:38:55,0.0
6376,-320,18184,-160,192,-154,2024-01-24 01:38:55,0.0
6408,-380,18232,-155,183,-167,2024-01-24 01:38:55,0.0
6412,-216,18204,-185,207,-169,2024-01-24 01:38:55,0.0
6488,-184,18216,-168,158,-174,2024-01-24 01:38:55,0.0
6480,-136,18156,-171,187,-160,2024-01-24 01:38:55,0.0
6504,-244,18120,-150,212,-186,2024-01-24 01:38:55,0.0
6448,-204,18060,-157,208,-184,2024-01-24 01:38:55,0.0
6464,-276,18240,-184,176,-173,2024-01-24 01:38:55,0.0
6344,-400,18116,-162,170,-158,2024-01-24 01:38:55,0.0
6492,-264,18072,-185,173,-185,2024-01-24 01:38:56,0.0
6420,-260,17992,-163,168,-185,2024-01-24 01:38:56,0.0
6460,-284,18040,-175,160,-178,2024-01-24 01:38:56,0.0
6464,-216,18108,-146,158,-157,2024-01-24 01:38:56,0.0
6492,-332,18104,-153,143,-196,2024-01-24 01:38:56,0.0
6568,-344,18116,-154,244,-192,2024-01-24 01:38:56,0.0
6448,-240,18084,-199,246,-185,2024-01-24 01:38:56,0.0
6476,-164,18192,-142,226,-175,2024-01-24 01:38:56,0.0
6432,-316,18076,-177,136,-159,2024-01-24 01:38:56,0.0
6348,-272,18016,-170,117,-189,2024-01-24 01:38:56,0.0
6520,-248,18236,-164,175,-161,2024-01-24 01:38:56,0.0
6472,-212,18216,-148,216,-154,2024-01-24 01:38:56,0.0
6456,-240,18132,-169,216,-174,2024-01-24 01:38:56,0.0
6516,-304,18208,-168,221,-179,2024-01-24 01:38:56,0.0
6420,-236,18152,-187,204,-175,2024-01-24 01:38:56,0.0
6344,-188,18216,-186,216,-174,2024-01-24 01:38:56,0.0
6500,-208,18184,-169,192,-166,2024-01-24 01:38:56,0.0
6524,-252,18120,-142,201,-173,2024-01-24 01:38:56,0.0
6396,-224,18176,-176,161,-173,2024-01-24 01:38:56,0.0
6448,-288,18136,-159,154,-172,2024-01-24 01:38:56,0.0
6512,-232,18072,-164,193,-181,2024-01-24 01:38:56,0.0
6384,-228,18192,-167,208,-157,2024-01-24 01:38:56,0.0
6544,-272,17924,-188,196,-191,2024-01-24 01:38:56,0.0
6492,-228,18200,-165,148,-176,2024-01-24 01:38:56,0.0
6588,-272,18088,-188,115,-209,2024-01-24 01:38:56,0.0
6472,-304,17972,-191,161,-187,2024-01-24 01:38:56,0.0
6576,-244,18072,-195,194,-197,2024-01-24 01:38:56,0.0
6456,-216,17944,-187,174,-189,2024-01-24 01:38:56,0.0
6432,-244,18132,-139,153,-173,2024-01-24 01:38:56,0.0
6488,-212,18256,-165,165,-173,2024-01-24 01:38:56,0.0
6496,-284,18124,-158,217,-172,2024-01-24 01:38:56,0.0
6412,-260,18080,-163,210,-176,2024-01-24 01:38:56,0.0
6424,-284,18004,-170,185,-208,2024-01-24 01:38:56,0.0
6416,-244,18120,-170,202,-176,2024-01-24 01:38:56,0.0
6484,-284,18096,-167,161,-192,2024-01-24 01:38:56,0.0
6504,-220,18116,-183,179,-193,2024-01-24 01:38:56,0.0
6480,-220,18236,-182,206,-168,2024-01-24 01:38:56,0.0
6592,-196,17772,-174,193,-195,2024-01-24 01:38:56,0.0
6472,-216,18148,-158,195,-175,2024-01-24 01:38:56,0.0
6400,-244,18172,-142,192,-168,2024-01-24 01:38:56,0.0
6480,-256,18148,-155,186,-160,2024-01-24 01:38:56,0.0
6452,-228,18080,-162,200,-163,2024-01-24 01:38:56,0.0
6400,-232,18152,-154,186,-166,2024-01-24 01:38:56,0.0
6520,-260,17972,-153,126,-176,2024-01-24 01:38:56,0.0
6444,-304,18164,-154,153,-178,2024-01-24 01:38:56,0.0
6452,-252,18180,-173,189,-172,2024-01-24 01:38:56,0.0
6556,-252,18148,-175,240,-185,2024-01-24 01:38:56,0.0
6436,-304,17988,-144,233,-169,2024-01-24 01:38:56,0.0
6588,-192,17996,-180,187,-168,2024-01-24 01:38:56,0.0
6472,-184,18004,-217,156,-195,2024-01-24 01:38:56,0.0
6640,-264,17992,-206,139,-193,2024-01-24 01:38:56,0.0
6588,-276,18096,-190,185,-162,2024-01-24 01:38:56,0.0
6368,-240,18120,-177,196,-193,2024-01-24 01:38:56,0.0
6300,-308,18108,-156,185,-183,2024-01-24 01:38:56,0.0
6448,-240,18292,-183,201,-148,2024-01-24 01:38:56,0.0
6412,-248,18236,-178,210,-167,2024-01-24 01:38:56,0.0
6328,-244,18200,-168,192,-178,2024-01-24 01:38:56,0.0
6536,-372,18088,-176,186,-172,2024-01-24 01:38:56,0.0
6816,-332,18276,-161,202,-182,2024-01-24 01:38:57,0.0
6676,-260,18020,-186,185,-204,2024-01-24 01:38:57,0.0
6404,-216,18168,-145,214,-177,2024-01-24 01:38:57,0.0
6436,-268,18164,-160,227,-158,2024-01-24 01:38:57,0.0
6564,-216,18212,-170,235,-195,2024-01-24 01:38:57,0.0
6464,-272,18040,-190,199,-189,2024-01-24 01:38:57,0.0
6380,-220,18256,-147,173,-191,2024-01-24 01:38:57,0.0
6600,-228,17964,-182,126,-190,2024-01-24 01:38:57,0.0
6444,-292,18080,-201,189,-186,2024-01-24 01:38:57,0.0
6484,-280,17956,-162,173,-188,2024-01-24 01:38:57,0.0
6504,-400,18148,-158,171,-195,2024-01-24 01:38:57,0.0
6528,-248,18044,-181,137,-183,2024-01-24 01:38:57,0.0
6544,-212,18052,-167,127,-188,2024-01-24 01:38:57,0.0
6548,-304,18052,-153,168,-212,2024-01-24 01:38:57,0.0
6604,-244,18144,-135,383,-219,2024-01-24 01:38:57,
