acceleration_x,acceleration_y,acceleration_z,gyroscope_x,gyroscope_y,gyroscope_z,timestamp,label
-0.4727,0.0134,-0.6885,-0.7324,-0.1068,-0.9689,2024-02-11 19:56:10.601,0.0
-0.4729,0.0164,-0.6882,-0.8621,1.1902,-0.7172,2024-02-11 19:56:10.601,0.0
-0.467,0.019,-0.6938,-0.8469,2.243,-0.8392,2024-02-11 19:56:10.610,0.0
-0.4656,0.0222,-0.6936,-1.0834,2.1286,-1.0757,2024-02-11 19:56:10.626,0.0
-0.4753,0.0181,-0.6899,-0.9079,2.037,-1.1673,2024-02-11 19:56:10.650,0.0
-0.4849,0.0239,-0.697,-0.8698,2.8381,-1.2283,2024-02-11 19:56:10.666,0.0
-0.4775,0.0212,-0.6992,-0.8621,1.3885,-1.2207,2024-02-11 19:56:10.683,0.0
-0.4734,0.0247,-0.6892,-1.152,0.473,-0.7629,2024-02-11 19:56:10.699,0.0
-0.4685,0.0193,-0.6868,-1.3885,0.7095,-1.0529,2024-02-11 19:56:10.715,0.0
-0.4756,0.0144,-0.6882,-1.3885,0.9918,-1.091,2024-02-11 19:56:10.740,0.0
-0.4773,0.0161,-0.6938,-1.1826,1.6403,-0.7095,2024-02-11 19:56:10.756,0.0
-0.4666,0.0171,-0.6914,-1.0757,2.6093,-1.0834,2024-02-11 19:56:10.772,0.0
-0.4736,0.0237,-0.6841,-1.2512,3.7918,-1.152,2024-02-11 19:56:10.789,0.0
-0.4761,0.0232,-0.6909,-1.2817,4.3793,-1.2741,2024-02-11 19:56:10.805,0.0
-0.4753,0.0208,-0.6899,-1.2589,3.9444,-1.2665,2024-02-11 19:56:10.822,0.0
-0.4749,0.0264,-0.6887,-1.5182,3.2501,-1.3428,2024-02-11 19:56:10.856,0.0
-0.4761,0.0237,-0.7024,-1.5411,2.5024,-1.2283,2024-02-11 19:56:10.864,0.0
-0.4734,0.0251,-0.6992,-1.5717,1.8158,-1.3275,2024-02-11 19:56:10.880,0.0
-0.4624,0.0168,-0.6956,-1.4343,1.0529,-1.4038,2024-02-11 19:56:10.899,0.0
-0.4609,0.0129,-0.688,-1.3809,1.03,-1.4954,2024-02-11 19:56:10.922,
-0.4685,0.0186,-0.6882,-1.297,2.2202,-1.3962,2024-02-11 19:56:10.930,0.0
-0.4731,0.0225,-0.6858,-1.5488,3.8223,-1.152,2024-02-11 19:56:10.947,0.0
-0.4695,0.0247,-0.6887,-1.1673,5.0201,-1.03,2024-02-11 19:56:10.971,0.0
-0.4778,0.0181,-0.7085,-1.3809,5.6458,-0.9079,2024-02-11 19:56:10.988,0.0
-0.4744,0.0178,-0.6953,-1.1826,4.837,-0.8011,2024-02-11 19:56:11.012,0.0
-0.4761,0.0242,-0.6936,-1.4648,3.1128,-1.0681,2024-02-11 19:56:11.031,0.0
-0.467,0.0229,-0.7021,-1.709,1.5793,-1.2589,2024-02-11 19:56:11.039,0.0
-0.4609,0.0261,-0.7024,-1.564,1.4496,-1.0605,2024-02-11 19:56:11.056,0.0
-0.4668,0.0193,-0.6902,-1.5106,2.0523,-1.0452,2024-02-11 19:56:11.081,0.0
-0.4651,0.0266,-0.6885,-1.3962,4.2725,-1.0147,2024-02-11 19:56:11.098,0.0
-0.4692,0.0256,-0.6929,-1.5182,7.0877,-0.9232,2024-02-11 19:56:11.122,0.0
-0.4595,0.0205,-0.707,-1.0223,5.1804,-1.236,2024-02-11 19:56:11.140,0.0
-0.4651,0.021,-0.7036,-1.1673,3.2425,-1.2589,2024-02-11 19:56:11.148,0.0
-0.4736,0.0227,-0.6978,-1.0147,3.6926,-1.2131,2024-02-11 19:56:11.172,0.0
-0.4666,0.0269,-0.7075,-0.8545,3.952,-1.0834,2024-02-11 19:56:11.189,0.0
-0.4658,0.0286,-0.7021,-1.1292,3.2196,-0.7935,2024-02-11 19:56:11.210,0.0
-0.4556,0.0195,-0.7036,-1.1673,2.3956,-0.7629,2024-02-11 19:56:11.223,0.0
-0.4595,0.022,-0.7039,-1.0605,3.1586,-0.946,2024-02-11 19:56:11.248,0.0
-0.4604,0.0229,-0.6946,-1.1444,4.8828,-0.9155,2024-02-11 19:56:11.264,0.0
-0.4619,0.0195,-0.6938,-1.0452,5.9967,-1.0834,2024-02-11 19:56:11.280,
-0.4595,0.0249,-0.7068,-1.091,4.6387,-1.2741,2024-02-11 19:56:11.297,0.0
-0.4565,0.0278,-0.7151,-1.0223,2.6703,-1.2131,2024-02-11 19:56:11.313,0.0
-0.4619,0.0293,-0.7114,-1.236,1.1139,-1.1215,2024-02-11 19:56:11.339,0.0
-0.4534,0.0269,-0.7063,-1.3809,0.7553,-1.0147,2024-02-11 19:56:11.355,0.0
-0.4517,0.0305,-0.6953,-1.3504,1.9684,-0.9232,2024-02-11 19:56:11.371,0.0
-0.4502,0.03,-0.7007,-1.5106,3.6316,-1.152,2024-02-11 19:56:11.396,0.0
-0.4404,0.0249,-0.6973,-1.1978,4.1199,-1.4572,2024-02-11 19:56:11.404,0.0
-0.4485,0.0332,-0.709,-1.152,3.9902,-1.4954,2024-02-11 19:56:11.421,0.0
-0.4556,0.031,-0.6958,-1.1826,5.6534,-1.1902,2024-02-11 19:56:11.446,0.0
-0.4556,0.0273,-0.7073,-0.824,7.0801,-0.618,2024-02-11 19:56:11.462,0.0
-0.446,0.0239,-0.7156,-0.5951,7.0801,0.4272,2024-02-11 19:56:11.479,0.0
-0.4468,0.0303,-0.7104,-1.6632,6.4697,-0.1678,2024-02-11 19:56:11.503,0.0
-0.4521,0.0403,-0.7131,-1.915,6.7673,-0.5112,2024-02-11 19:56:11.519,0.0
-0.4561,0.0527,-0.7114,-0.7401,7.4081,0.4959,2024-02-11 19:56:11.535,0.0
-0.4519,0.0684,-0.7278,-2.0218,7.2708,1.7166,2024-02-11 19:56:11.560,0.0
-0.4404,0.0659,-0.7285,-3.4637,6.6452,1.8921,2024-02-11 19:56:11.576,0.0
-0.4287,0.0581,-0.7124,-3.6316,4.9133,0.9689,2024-02-11 19:56:11.600,0.0
-0.429,0.0605,-0.7231,-3.0594,5.1575,1.5717,2024-02-11 19:56:11.608,0.0
-0.4116,0.0681,-0.7251,-3.6469,7.0877,0.2365,2024-02-11 19:56:11.624,0.0
-0.4226,0.0823,-0.7026,-4.5013,8.5983,-1.2665,2024-02-11 19:56:11.657,
-0.4282,0.095,-0.71,-4.2496,9.1705,-1.8387,2024-02-11 19:56:11.673,0.0
-0.4333,0.1099,-0.7261,-5.0659,10.9787,-1.915,2024-02-11 19:56:11.681,0.0
-0.4294,0.1028,-0.7244,-5.2872,12.146,-2.0523,2024-02-11 19:56:11.697,0.0
-0.4182,0.0906,-0.7334,-5.4321,11.795,-2.4796,2024-02-11 19:56:11.723,0.0
-0.3984,0.0906,-0.7402,-5.9357,11.0626,-3.5706,2024-02-11 19:56:11.731,0.0
-0.3884,0.0991,-0.7283,-6.7444,10.0098,-5.7068,2024-02-11 19:56:11.755,0.0
-0.408,0.1023,-0.7112,-6.4011,8.255,-6.7825,2024-02-11 19:56:11.772,0.0
-0.4197,0.1118,-0.7229,-6.1798,8.9493,-7.2327,2024-02-11 19:56:11.788,0.0
-0.4114,0.1155,-0.7168,-5.8136,11.4365,-7.0267,2024-02-11 19:56:11.812,0.0
-0.4026,0.1121,-0.7263,-6.0501,11.6425,-6.7368,2024-02-11 19:56:11.833,0.0
-0.3887,0.0996,-0.7329,-7.5607,10.6201,-7.0496,2024-02-11 19:56:11.849,0.0
-0.3857,0.105,-0.7346,-9.1248,13.1073,-8.194,2024-02-11 19:56:11.865,0.0
-0.3945,0.1162,-0.73,-9.6359,17.5171,-7.7896,2024-02-11 19:56:11.881,0.0
-0.397,0.1064,-0.7407,-9.8877,19.249,-8.1406,2024-02-11 19:56:11.897,0.0
-0.3997,0.0986,-0.7383,-11.1542,16.7007,-8.2932,2024-02-11 19:56:11.921,0.0
-0.4065,0.0967,-0.7651,-12.1994,13.588,-6.7978,2024-02-11 19:56:11.931,0.0
-0.3918,0.092,-0.7761,-14.389,11.2457,-4.715,2024-02-11 19:56:11.956,0.0
-0.4094,0.0562,-0.7349,-17.2882,7.7667,-3.9444,2024-02-11 19:56:11.964,0.0
-0.4216,0.0129,-0.7295,-17.5552,6.6147,-2.8763,2024-02-11 19:56:11.989,0.0
-0.3525,-0.0303,-0.7734,-15.831,9.0179,-2.8229,2024-02-11 19:56:12.005,
-0.2749,-0.0642,-0.7886,-12.2299,8.9951,-3.2043,2024-02-11 19:56:12.022,0.0
-0.2991,-0.0774,-0.7808,-9.7733,12.1536,-1.976,2024-02-11 19:56:12.038,0.0
-0.3577,-0.0981,-0.7773,-8.3313,18.0893,1.4038,2024-02-11 19:56:12.062,0.0
-0.3423,-0.1248,-0.7822,-9.3994,22.1405,-1.3199,2024-02-11 19:56:12.078,0.0
-0.3704,-0.1174,-0.739,-6.4316,26.0315,-5.3024,2024-02-11 19:56:12.095,0.0
-0.3833,-0.0564,-0.7781,-1.6403,32.196,-7.0572,2024-02-11 19:56:12.111,0.0
-0.3799,0.0376,-0.8164,-0.0839,36.0489,-11.8942,2024-02-11 19:56:12.127,0.0
-0.3777,0.0747,-0.8364,-0.4425,30.0446,-17.4255,2024-02-11 19:56:12.151,0.0
-0.3967,0.0737,-0.8254,-3.1586,17.7994,-21.553,2024-02-11 19:56:12.170,0.0
-0.3809,0.0747,-0.8411,-7.4387,7.3318,-24.147,2024-02-11 19:56:12.186,0.0
-0.3489,0.0706,-0.8237,-13.3667,-0.1602,-27.4277,2024-02-11 19:56:12.202,0.0
-0.3186,0.0869,-0.8125,-19.3024,-0.5035,-32.2647,2024-02-11 19:56:12.227,0.0
-0.321,0.1313,-0.759,-23.9716,1.7776,-38.7497,2024-02-11 19:56:12.243,0.0
-0.3259,0.1401,-0.7344,-26.9928,5.2032,-44.3192,2024-02-11 19:56:12.291,0.0
-0.3467,0.1521,-0.7412,-31.3568,8.4076,-48.9655,2024-02-11 19:56:12.299,0.0
-0.3518,0.1396,-0.7258,-36.2854,9.6054,-52.1011,2024-02-11 19:56:12.299,0.0
-0.3552,0.1074,-0.7322,-39.5584,9.6893,-54.0771,2024-02-11 19:56:12.307,0.0
-0.3501,0.1084,-0.7637,-43.1442,7.1793,-54.3823,2024-02-11 19:56:12.323,0.0
-0.3523,0.0999,-0.7339,-47.3709,2.4719,-55.7938,2024-02-11 19:56:12.348,0.0
-0.3284,0.0796,-0.7261,-49.5453,-3.2196,-57.7164,2024-02-11 19:56:12.364,
-0.2344,0.0876,-0.7349,-49.9344,-7.4234,-59.6008,2024-02-11 19:56:12.380,0.0
-0.0537,0.0173,-0.7263,-41.3971,-5.5695,-59.2651,2024-02-11 19:56:12.405,0.0
0.0115,-0.0708,-0.7937,-22.3923,10.2005,-60.3409,2024-02-11 19:56:12.437,0.0
-0.1008,-0.1909,-0.9119,-12.0163,31.7154,-58.2504,2024-02-11 19:56:12.437,0.0
-0.3279,-0.178,-0.9238,-15.7623,53.9322,-48.2178,2024-02-11 19:56:12.454,0.0
-0.4751,-0.1592,-0.876,-25.0015,76.1261,-30.1743,2024-02-11 19:56:12.470,0.0
-0.4395,-0.0767,-0.9304,-26.1612,82.9315,-22.4228,2024-02-11 19:56:12.494,0.0
-0.4395,0.0874,-0.9656,-25.589,72.6013,-19.3253,2024-02-11 19:56:12.510,0.0
-0.4634,0.2146,-0.9976,-26.6571,41.5115,-16.7618,2024-02-11 19:56:12.527,0.0
-0.4568,0.2246,-0.9998,-30.1666,1.8921,-13.2217,2024-02-11 19:56:12.551,0.0
-0.407,0.158,-0.9771,-33.2947,-25.383,-7.6141,2024-02-11 19:56:12.559,0.0
-0.3489,0.0764,-0.8979,-35.9955,-34.9197,-5.188,2024-02-11 19:56:12.587,0.0
-0.2942,0.0593,-0.832,-36.8423,-31.5475,-6.0959,2024-02-11 19:56:12.611,0.0
-0.2913,0.0774,-0.752,-36.4532,-23.5443,-7.9193,2024-02-11 19:56:12.619,0.0
-0.2993,0.1108,-0.6855,-35.2783,-15.2283,-8.4991,2024-02-11 19:56:12.636,0.0
-0.2756,0.1565,-0.6831,-33.5541,-1.6556,-9.3765,2024-02-11 19:56:12.660,0.0
-0.2671,0.1628,-0.657,-30.6091,12.4207,-11.5433,2024-02-11 19:56:12.677,0.0
-0.2961,0.1384,-0.6553,-23.613,20.134,-11.6882,2024-02-11 19:56:12.695,0.0
-0.304,0.1411,-0.7178,-18.631,21.7285,-10.0708,2024-02-11 19:56:12.711,0.0
-0.2935,0.1782,-0.7808,-18.4784,18.837,-10.3989,2024-02-11 19:56:12.735,
-0.3132,0.2083,-0.8035,-19.3481,13.2599,-9.2468,2024-02-11 19:56:12.743,0.0
-0.291,0.1885,-0.8318,-19.5923,4.8904,-5.6915,2024-02-11 19:56:12.760,0.0
-0.2495,0.187,-0.8232,-22.0337,-0.5569,-4.1733,2024-02-11 19:56:12.787,0.0
-0.2659,0.2273,-0.7888,-22.4533,1.442,-3.7231,2024-02-11 19:56:12.803,0.0
-0.2766,0.231,-0.7766,-20.8282,6.0272,-1.0986,2024-02-11 19:56:12.820,0.0
-0.2654,0.2415,-0.7964,-20.2942,7.4081,1.091,2024-02-11 19:56:12.836,0.0
-0.2573,0.2524,-0.8059,-21.6217,7.2556,2.2964,2024-02-11 19:56:12.852,0.0
-0.2427,0.2722,-0.8103,-22.6364,6.3782,3.8223,2024-02-11 19:56:12.868,0.0
-0.2266,0.2432,-0.7434,-21.2555,1.3199,5.5847,2024-02-11 19:56:12.884,0.0
-0.2073,0.2439,-0.7275,-18.959,-1.2131,4.5853,2024-02-11 19:56:12.908,0.0
-0.2012,0.2747,-0.7244,-17.4026,1.2665,3.0518,2024-02-11 19:56:12.932,0.0
-0.1943,0.2947,-0.7236,-15.6784,7.0038,2.3041,2024-02-11 19:56:12.940,0.0
-0.1677,0.3008,-0.7192,-14.3585,13.0005,1.1444,2024-02-11 19:56:12.957,0.0
-0.1572,0.3433,-0.7246,-13.5651,17.7917,-3.3264,2024-02-11 19:56:12.973,0.0
-0.1729,0.3506,-0.7119,-12.207,20.1035,-6.7444,2024-02-11 19:56:12.998,0.0
-0.1812,0.3413,-0.7554,-10.7803,21.3623,-8.8425,2024-02-11 19:56:13.014,0.0
-0.157,0.3159,-0.8062,-11.5128,22.0337,-12.3901,2024-02-11 19:56:13.030,0.0
-0.137,0.2983,-0.8149,-12.5809,17.8452,-15.7013,2024-02-11 19:56:13.046,0.0
-0.1445,0.3062,-0.8035,-14.2365,9.0256,-18.1351,2024-02-11 19:56:13.062,0.0
-0.1709,0.303,-0.7656,-16.1057,1.6479,-18.6996,2024-02-11 19:56:13.086,
-0.1741,0.239,-0.7114,-14.0152,-2.5101,-18.6539,2024-02-11 19:56:13.103,0.0
-0.1404,0.186,-0.6892,-7.431,-5.9128,-20.401,2024-02-11 19:56:13.119,0.0
-0.0691,0.2363,-0.7554,-2.0981,-5.3787,-22.0184,2024-02-11 19:56:13.143,0.0
-0.0635,0.2646,-0.7471,-4.2877,-7.1259,-24.8642,2024-02-11 19:56:13.151,0.0
-0.1536,0.2231,-0.6123,-5.6381,-14.9994,-27.0386,2024-02-11 19:56:13.175,0.0
-0.207,0.2332,-0.5608,-0.1221,-14.6484,-26.6571,2024-02-11 19:56:13.191,0.0
-0.1436,0.3198,-0.6829,5.6381,2.6321,-27.4658,2024-02-11 19:56:13.208,0.0
-0.0774,0.3848,-0.7815,8.5678,18.4631,-30.159,2024-02-11 19:56:13.232,0.0
-0.1333,0.4236,-0.7292,2.9831,13.8626,-38.8489,2024-02-11 19:56:13.248,0.0
-0.2268,0.4045,-0.6782,4.1733,5.9814,-43.251,2024-02-11 19:56:13.264,0.0
-0.1851,0.3887,-0.7751,9.964,4.921,-45.3262,2024-02-11 19:56:13.288,0.0
-0.1245,0.373,-0.8447,11.3602,4.2953,-52.0859,2024-02-11 19:56:13.299,0.0
-0.1013,0.373,-0.8594,10.6812,0.6485,-63.1409,2024-02-11 19:56:13.323,0.0
-0.2021,0.4104,-0.8635,13.649,-5.5161,-68.7256,2024-02-11 19:56:13.339,0.0
-0.1677,0.4548,-0.9365,12.8403,-16.5634,-70.6635,2024-02-11 19:56:13.355,0.0
-0.1914,0.4624,-0.9148,4.4861,-28.3356,-74.2798,2024-02-11 19:56:13.371,0.0
-0.2266,0.4189,-0.876,-2.8076,-35.2936,-76.7975,2024-02-11 19:56:13.388,0.0
-0.238,0.3967,-0.8628,-8.2932,-38.5132,-80.8792,2024-02-11 19:56:13.412,0.0
-0.2275,0.3726,-0.9365,-12.5427,-29.6249,-84.816,2024-02-11 19:56:13.428,0.0
-0.2122,0.2761,-0.9282,-15.9073,-21.6675,-91.5604,2024-02-11 19:56:13.444,
-0.3101,0.2937,-0.9807,-21.4386,-15.625,-97.3969,2024-02-11 19:56:13.461,0.0
-0.3425,0.3894,-1.0579,-31.9901,-13.6795,-94.2612,2024-02-11 19:56:13.485,0.0
-0.377,0.4556,-0.9468,-44.8685,-42.099,-87.3718,2024-02-11 19:56:13.493,0.0
-0.4041,0.395,-0.8889,-56.4423,-80.7953,-77.9419,2024-02-11 19:56:13.517,0.0
-0.3967,0.2356,-0.9875,-63.4003,-73.6542,-75.7065,2024-02-11 19:56:13.533,0.0
-0.3757,0.1111,-1.1528,-65.2542,-29.3655,-70.7626,2024-02-11 19:56:13.582,0.0
-0.4001,-0.156,-1.2932,-64.8499,37.4832,-58.5785,2024-02-11 19:56:13.582,0.0
-0.3926,-0.5352,-1.1492,-57.663,84.2056,-57.0526,2024-02-11 19:56:13.590,0.0
-0.6855,-0.7625,-0.6675,-22.8119,45.0745,-56.9839,2024-02-11 19:56:13.615,0.0
-0.7913,-0.5447,-0.6609,10.5057,-37.3993,-36.9797,2024-02-11 19:56:13.623,0.0
-0.4727,-0.2607,-0.79,9.5673,-108.9401,-42.2363,2024-02-11 19:56:13.647,0.0
-0.5161,-0.3281,-0.6362,1.8082,-130.9128,-41.42,2024-02-11 19:56:13.663,0.0
-0.4878,-0.4939,-0.5098,5.661,-127.0752,-36.0184,2024-02-11 19:56:13.680,0.0
-0.438,-0.3779,-0.4841,13.3286,-83.3893,-22.8119,2024-02-11 19:56:13.712,0.0
-0.4363,-0.2781,-0.4011,13.855,-28.7476,-13.9008,2024-02-11 19:56:13.722,0.0
-0.4438,-0.3293,-0.3818,14.4043,16.4948,-13.5345,2024-02-11 19:56:13.730,0.0
-0.4321,-0.3313,-0.4441,18.3487,58.3496,-12.619,2024-02-11 19:56:13.755,0.0
-0.437,-0.2629,-0.4978,20.6299,79.0405,-13.0081,2024-02-11 19:56:13.771,0.0
-0.4854,-0.1711,-0.5427,21.1716,76.5305,-13.8245,2024-02-11 19:56:13.787,0.0
-0.5469,-0.23,-0.644,23.5367,57.4951,-9.5444,2024-02-11 19:56:13.803,
-0.5554,-0.1917,-0.7231,16.1896,32.5775,-8.049,2024-02-11 19:56:13.823,0.0
-0.5535,-0.1497,-0.7361,2.8152,7.7286,-9.4986,2024-02-11 19:56:13.839,0.0
-0.5486,-0.1252,-0.7124,-1.6251,-6.1951,-2.2202,2024-02-11 19:56:13.863,0.0
-0.4836,-0.0408,-0.7344,-12.1002,-10.4675,-0.3433,2024-02-11 19:56:13.879,0.0
-0.4443,0.0015,-0.6592,-24.6277,-8.7204,-7.2098,2024-02-11 19:56:13.895,0.0
-0.4622,0.0315,-0.582,-21.698,-6.1493,-13.4125,2024-02-11 19:56:13.919,0.0
-0.4138,0.0869,-0.678,-16.9296,3.3493,-17.2195,2024-02-11 19:56:13.932,0.0
-0.499,0.1121,-0.7151,-28.9078,8.7509,-25.1236,2024-02-11 19:56:13.956,0.0
-0.5642,0.001,-0.6926,-35.2554,12.8021,-31.7917,2024-02-11 19:56:13.972,0.0
-0.5481,0.0063,-0.7676,-40.2908,12.6038,-38.2156,2024-02-11 19:56:13.980,0.0
-0.5535,-0.0029,-0.7671,-43.4494,-2.0218,-43.9301,2024-02-11 19:56:14.004,0.0
-0.5391,0.0376,-0.7847,-45.2347,-15.8157,-42.3813,2024-02-11 19:56:14.020,0.0
-0.4778,0.0164,-0.7268,-51.384,-23.6664,-40.9698,2024-02-11 19:56:14.036,0.0
-0.4578,-0.0859,-0.6487,-54.924,-31.9901,-41.0995,2024-02-11 19:56:14.062,0.0
-0.4216,-0.1741,-0.5898,-54.3976,-32.692,-45.2118,2024-02-11 19:56:14.078,0.0
-0.4146,-0.1838,-0.6033,-51.2619,-19.8517,-50.0031,2024-02-11 19:56:14.102,0.0
-0.3884,-0.1309,-0.6184,-45.845,0.0153,-49.8962,2024-02-11 19:56:14.118,0.0
-0.4111,-0.0908,-0.6121,-39.1541,13.0844,-38.1775,2024-02-11 19:56:14.134,0.0
-0.4358,-0.0981,-0.6069,-42.8696,13.4888,-26.9852,2024-02-11 19:56:14.158,0.0
-0.4348,-0.1782,-0.5662,-49.7513,13.3209,-20.4315,2024-02-11 19:56:14.174,
-0.4307,-0.2544,-0.5505,-47.2565,26.1383,-14.3738,2024-02-11 19:56:14.190,0.0
-0.4138,-0.3088,-0.6003,-38.6276,45.4865,-11.055,2024-02-11 19:56:14.215,0.0
-0.4355,-0.2974,-0.6804,-29.2892,55.9692,-10.0708,2024-02-11 19:56:14.223,0.0
-0.4575,-0.2483,-0.7578,-23.1628,52.0172,-6.4316,2024-02-11 19:56:14.248,0.0
-0.4556,-0.1399,-0.7434,-20.7596,29.3274,-0.7095,2024-02-11 19:56:14.256,0.0
-0.4316,-0.103,-0.7073,-17.7231,11.7264,7.431,2024-02-11 19:56:14.288,0.0
-0.3999,-0.1155,-0.6794,-17.7917,11.3297,11.5585,2024-02-11 19:56:14.296,0.0
-0.3503,-0.1094,-0.6672,-2.4033,41.8167,11.5662,2024-02-11 19:56:14.312,0.0
-0.3572,0.0378,-0.7556,17.0975,88.0508,2.4948,2024-02-11 19:56:14.336,0.0
-0.4141,0.0869,-0.7747,20.3171,90.9576,-6.4926,2024-02-11 19:56:14.344,0.0
-0.5286,0.1143,-0.7488,17.7307,59.7687,-13.4964,2024-02-11 19:56:14.393,0.0
-0.5786,0.1658,-0.8301,15.2817,32.6614,-12.352,2024-02-11 19:56:14.393,0.0
-0.54,0.1768,-0.9402,6.9122,20.4163,-3.9139,2024-02-11 19:56:14.401,0.0
-0.3821,0.2539,-0.9507,-10.1242,11.3525,1.6556,2024-02-11 19:56:14.425,0.0
-0.2495,0.2866,-0.8821,-22.3007,6.4163,-0.6485,2024-02-11 19:56:14.441,0.0
-0.2605,0.2349,-0.7896,-24.8108,2.4872,-5.4703,2024-02-11 19:56:14.456,0.0
-0.2734,0.1594,-0.7375,-22.7509,5.0507,-9.2697,2024-02-11 19:56:14.472,0.0
-0.3079,0.1396,-0.7197,-20.2637,17.2577,-10.8414,2024-02-11 19:56:14.497,0.0
-0.3296,0.1519,-0.7322,-18.6386,35.3241,-9.491,2024-02-11 19:56:14.512,0.0
-0.3608,0.1338,-0.7539,-17.2424,48.9731,-6.7749,2024-02-11 19:56:14.537,
-0.3765,0.126,-0.7793,-16.1743,50.8423,-3.1509,2024-02-11 19:56:14.545,0.0
-0.3662,0.114,-0.8203,-15.48,41.1224,0.1678,2024-02-11 19:56:14.562,0.0
-0.394,0.0889,-0.7947,-14.2517,25.6729,2.0523,2024-02-11 19:56:14.586,0.0
-0.4182,0.0835,-0.7546,-8.1253,9.8267,4.5853,2024-02-11 19:56:14.602,0.0
-0.3977,0.1096,-0.8003,-1.709,-0.2975,7.4921,2024-02-11 19:56:14.619,0.0
-0.3394,0.1389,-0.8418,1.3351,-8.1177,7.9117,2024-02-11 19:56:14.643,0.0
-0.3052,0.1057,-0.7949,4.6692,-17.8375,6.5613,2024-02-11 19:56:14.659,0.0
-0.3572,0.1394,-0.7166,6.7062,-30.6549,9.0561,2024-02-11 19:56:14.675,0.0
-0.3462,0.147,-0.6621,10.1318,-38.1393,11.7569,2024-02-11 19:56:14.691,0.0
-0.3162,0.1401,-0.6462,13.9465,-31.395,12.3978,2024-02-11 19:56:14.715,0.0
-0.2996,0.1875,-0.6787,15.9607,-16.4871,13.6261,2024-02-11 19:56:14.731,0.0
-0.3215,0.1697,-0.6836,16.0675,-6.3019,14.595,2024-02-11 19:56:14.759,0.0
-0.3699,0.134,-0.6704,17.2424,-3.3188,15.1672,2024-02-11 19:56:14.768,0.0
-0.4148,0.1248,-0.6755,20.9503,-0.618,15.8997,2024-02-11 19:56:14.776,0.0
-0.3879,0.1555,-0.7502,25.7874,1.4038,16.4108,2024-02-11 19:56:14.816,0.0
-0.3394,0.1729,-0.8154,28.7857,-4.7531,15.4953,2024-02-11 19:56:14.824,0.0
-0.3188,0.2026,-0.9236,27.2751,-4.1962,16.9373,2024-02-11 19:56:14.840,0.0
-0.3057,0.1003,-1.0715,16.2125,3.7842,19.7754,2024-02-11 19:56:14.859,0.0
-0.3137,0.0894,-0.9736,4.8599,-8.4686,20.2484,2024-02-11 19:56:14.875,0.0
-0.396,0.1079,-0.8533,2.5787,-25.0168,20.6833,2024-02-11 19:56:14.891,
-0.4438,0.1355,-0.7791,2.7542,-36.1557,22.3007,2024-02-11 19:56:14.908,0.0
-0.3806,0.1057,-0.739,4.7073,-41.275,23.0713,2024-02-11 19:56:14.924,0.0
-0.333,0.0251,-0.7124,8.7128,-40.0009,19.8822,2024-02-11 19:56:14.949,0.0
-0.3352,0.0195,-0.7285,10.8719,-31.9443,18.5623,2024-02-11 19:56:14.966,0.0
-0.3462,0.0107,-0.7078,12.0239,-22.4762,19.8746,2024-02-11 19:56:14.982,0.0
-0.3486,-0.0146,-0.6833,14.7934,-16.2506,21.4691,2024-02-11 19:56:14.998,0.0
-0.3535,-0.0127,-0.7043,16.3193,-11.0779,23.0408,2024-02-11 19:56:15.015,0.0
-0.3809,-0.0071,-0.7104,16.1438,-6.6833,25.0702,2024-02-11 19:56:15.040,0.0
-0.395,-0.0139,-0.7253,17.4408,-2.0905,27.0767,2024-02-11 19:56:15.056,0.0
-0.4158,-0.0334,-0.739,19.6609,0.061,28.183,2024-02-11 19:56:15.080,0.0
-0.3994,-0.0496,-0.7615,21.9727,-0.5417,28.4042,2024-02-11 19:56:15.096,0.0
-0.376,-0.0376,-0.7861,22.0032,-2.861,28.6484,2024-02-11 19:56:15.113,0.0
-0.3643,0.0037,-0.7769,20.5002,-6.5002,28.9993,2024-02-11 19:56:15.129,0.0
-0.3672,0.0457,-0.7446,19.8898,-10.5133,29.9759,2024-02-11 19:56:15.145,0.0
-0.3743,0.0618,-0.7227,20.3629,-12.0621,30.8838,2024-02-11 19:56:15.165,0.0
-0.3757,0.0632,-0.7234,19.6762,-8.8577,31.5094,2024-02-11 19:56:15.181,0.0
-0.3787,0.0522,-0.7202,18.8675,-5.9891,31.7154,2024-02-11 19:56:15.197,0.0
-0.4058,0.0271,-0.7368,18.4708,-2.7466,31.5552,2024-02-11 19:56:15.221,0.0
-0.4192,0.0212,-0.7295,18.9133,0.7553,32.692,2024-02-11 19:56:15.237,0.0
-0.4109,0.0234,-0.741,19.6915,3.3951,32.0969,2024-02-11 19:56:15.253,
-0.4158,0.0332,-0.7576,21.1105,2.2888,30.3879,2024-02-11 19:56:15.273,0.0
-0.4065,0.0403,-0.7737,21.8887,-0.618,29.4571,2024-02-11 19:56:15.295,0.0
-0.4045,0.053,-0.7825,21.553,-3.4485,28.0609,2024-02-11 19:56:15.303,0.0
-0.3796,0.0667,-0.7896,19.6533,-7.4005,26.5503,2024-02-11 19:56:15.327,0.0
-0.3879,0.0679,-0.7678,16.243,-10.0403,25.3601,2024-02-11 19:56:15.351,0.0
-0.3584,0.094,-0.7454,13.9542,-10.7498,24.5438,2024-02-11 19:56:15.367,0.0
-0.3928,0.0735,-0.7185,12.6495,-6.5689,25.116,2024-02-11 19:56:15.383,0.0
-0.3721,0.0676,-0.73,11.5662,-2.3575,24.0631,2024-02-11 19:56:15.400,0.0
-0.3789,0.074,-0.74,11.2152,2.7237,22.5983,2024-02-11 19:56:15.416,0.0
-0.3801,0.0903,-0.7502,11.3068,6.3171,21.7972,2024-02-11 19:56:15.440,0.0
-0.3748,0.0889,-0.77,10.6354,5.2414,20.752,2024-02-11 19:56:15.456,0.0
-0.3831,0.0613,-0.7468,10.6201,0.4501,19.4016,2024-02-11 19:56:15.497,0.0
-0.3677,0.0518,-0.7666,10.7803,-2.6855,18.0817,2024-02-11 19:56:15.497,0.0
-0.3665,0.0518,-0.7642,9.9716,-2.3804,16.8457,2024-02-11 19:56:15.505,0.0
-0.3765,0.0613,-0.7493,8.4381,-1.442,15.625,2024-02-11 19:56:15.521,0.0
-0.3801,0.0732,-0.7327,7.0343,0.5341,15.0986,2024-02-11 19:56:15.545,0.0
-0.3879,0.0867,-0.7366,6.5155,3.0212,14.2822,2024-02-11 19:56:15.561,0.0
-0.385,0.0916,-0.7427,6.5536,4.1504,12.7258,2024-02-11 19:56:15.578,0.0
-0.3892,0.1042,-0.7568,5.4932,3.6163,10.1013,2024-02-11 19:56:15.602,0.0
-0.385,0.0999,-0.7634,3.2501,3.7155,7.4844,2024-02-11 19:56:15.626,
-0.3923,0.1013,-0.7554,1.3962,2.3804,5.1117,2024-02-11 19:56:15.651,0.0
-0.4016,0.1104,-0.7432,0.1526,1.1749,3.4103,2024-02-11 19:56:15.659,0.0
-0.397,0.1143,-0.7483,-0.9842,1.0681,1.3428,2024-02-11 19:56:15.675,0.0
-0.3972,0.1233,-0.7593,-2.0828,2.3804,-1.7471,2024-02-11 19:56:15.683,0.0
-0.3975,0.1191,-0.762,-3.2883,2.0218,-4.1885,2024-02-11 19:56:15.707,0.0
-0.3831,0.1284,-0.7632,-5.4779,-0.6866,-6.691,2024-02-11 19:56:15.723,0.0
-0.3838,0.1392,-0.7505,-8.2016,-4.3106,-9.3765,2024-02-11 19:56:15.748,0.0
-0.426,0.1033,-0.7339,-8.9188,-5.4855,-9.5749,2024-02-11 19:56:15.771,0.0
-0.4165,0.0713,-0.7258,-9.14,-3.746,-9.7504,2024-02-11 19:56:15.780,0.0
-0.4204,0.0469,-0.7424,-8.5983,-1.8539,-11.0474,2024-02-11 19:56:15.801,0.0
-0.3989,0.0486,-0.7468,-7.5684,-1.4648,-12.352,2024-02-11 19:56:15.817,0.0
-0.3838,0.0823,-0.7432,-7.0496,-1.3657,-13.1378,2024-02-11 19:56:15.841,0.0
-0.3921,0.1274,-0.7268,-7.164,0.1526,-13.298,2024-02-11 19:56:15.849,0.0
-0.4084,0.1392,-0.7283,-7.1182,2.7847,-11.9858,2024-02-11 19:56:15.881,0.0
-0.4028,0.1338,-0.7483,-9.3842,1.236,-12.7869,2024-02-11 19:56:15.892,0.0
-0.4165,0.0964,-0.7148,-10.5591,-3.746,-14.3967,2024-02-11 19:56:15.908,0.0
-0.4377,0.0505,-0.7046,-9.819,-8.3466,-14.8315,2024-02-11 19:56:15.924,0.0
-0.4231,0.0264,-0.7288,-9.3231,-6.424,-15.2512,2024-02-11 19:56:15.941,0.0
-0.4026,0.0525,-0.7385,-8.7967,0.4349,-15.0909,2024-02-11 19:56:15.966,0.0
-0.4148,0.0818,-0.7095,-7.0724,4.0436,-13.7482,2024-02-11 19:56:15.983,
-0.4705,0.0864,-0.6785,-4.5166,5.867,-10.1776,2024-02-11 19:56:16.001,0.0
-0.4749,0.0583,-0.7251,-1.8997,7.1182,-5.6534,2024-02-11 19:56:16.016,0.0
-0.447,0.0564,-0.77,-3.9291,5.3558,-5.6,2024-02-11 19:56:16.032,0.0
-0.4639,0.0439,-0.7339,-3.891,-1.3199,-7.2327,2024-02-11 19:56:16.048,0.0
-0.4417,0.0667,-0.7197,-2.3499,-7.6141,-7.9117,2024-02-11 19:56:16.072,0.0
-0.4163,0.0854,-0.7085,-0.9003,-6.3477,-9.2239,2024-02-11 19:56:16.088,0.0
-0.3928,0.1018,-0.7344,0.4349,-3.7003,-10.0327,2024-02-11 19:56:16.104,0.0
-0.3811,0.0913,-0.7458,-0.885,-3.7918,-11.1237,2024-02-11 19:56:16.120,0.0
-0.385,0.094,-0.7185,-4.0512,-5.0201,-11.4517,2024-02-11 19:56:16.136,0.0
-0.395,0.0964,-0.6843,-4.6234,-5.7373,-11.1313,2024-02-11 19:56:16.152,0.0
-0.386,0.0952,-0.6863,-4.8828,-0.3815,-10.6049,2024-02-11 19:56:16.177,0.0
-0.4019,0.092,-0.6548,-2.9526,4.837,-9.4299,2024-02-11 19:56:16.193,0.0
-0.4272,0.0879,-0.6677,0.824,5.5313,-10.4065,2024-02-11 19:56:16.209,0.0
-0.4602,0.1282,-0.7874,-0.5875,9.7122,-10.1318,2024-02-11 19:56:16.225,0.0
-0.4094,0.0889,-0.7817,-4.6692,11.1847,-12.0392,2024-02-11 19:56:16.242,0.0
-0.4971,0.0627,-0.7283,-3.6163,3.1662,-11.3525,2024-02-11 19:56:16.266,0.0
-0.5107,0.0911,-0.7004,-0.5341,-2.0294,-8.4991,2024-02-11 19:56:16.282,0.0
-0.4863,0.0813,-0.7488,1.0529,-1.0452,-8.7662,2024-02-11 19:56:16.298,0.0
-0.4387,0.0522,-0.7871,1.7624,-6.5536,-10.8795,2024-02-11 19:56:16.323,0.0
-0.4233,0.0647,-0.7673,1.2589,-20.2942,-13.1226,2024-02-11 19:56:16.332,
-0.3713,0.063,-0.7927,-2.3727,-37.0331,-14.534,2024-02-11 19:56:16.357,0.0
-0.3459,0.1162,-0.759,-7.7515,-42.0532,-16.3727,2024-02-11 19:56:16.373,0.0
-0.3545,0.136,-0.6975,-12.1384,-37.9028,-20.9503,2024-02-11 19:56:16.390,0.0
-0.4282,0.0508,-0.6055,-13.3743,-19.2871,-27.2217,2024-02-11 19:56:16.406,0.0
-0.4678,0.0352,-0.626,-10.3836,-2.2659,-27.6566,2024-02-11 19:56:16.422,0.0
-0.4829,0.1084,-0.6626,-10.7651,5.4703,-27.71,2024-02-11 19:56:16.446,0.0
-0.4822,0.1008,-0.7239,-12.413,2.9907,-29.1824,2024-02-11 19:56:16.470,0.0
-0.4954,0.0737,-0.7529,-17.4789,-5.3711,-32.4631,2024-02-11 19:56:16.486,0.0
-0.5076,0.0583,-0.7595,-19.0353,-18.7302,-35.347,2024-02-11 19:56:16.495,0.0
-0.532,0.0339,-0.7317,-20.401,-37.4832,-38.5132,2024-02-11 19:56:16.527,0.0
-0.5686,0.0281,-0.6875,-21.5759,-52.9251,-39.772,2024-02-11 19:56:16.551,0.0
-0.5652,0.0051,-0.6577,-21.9879,-65.1932,-38.269,2024-02-11 19:56:16.559,0.0
-0.5481,-0.0215,-0.6018,-23.14,-70.8771,-37.3459,2024-02-11 19:56:16.575,0.0
-0.5447,-0.0464,-0.5273,-22.8577,-66.5665,-34.729,2024-02-11 19:56:16.591,0.0
-0.561,-0.0532,-0.4851,-19.8135,-54.1992,-30.6473,2024-02-11 19:56:16.611,0.0
-0.5469,-0.0188,-0.4834,-17.4179,-33.4854,-26.1459,2024-02-11 19:56:16.643,0.0
-0.5425,0.0295,-0.5327,-18.6691,-4.8599,-22.5296,2024-02-11 19:56:16.664,0.0
-0.5405,0.0635,-0.5671,-21.5225,14.267,-20.4468,2024-02-11 19:56:16.664,0.0
-0.5422,0.0845,-0.5935,-22.2015,23.8113,-18.9056,2024-02-11 19:56:16.688,0.0
-0.5322,0.0688,-0.6387,-19.989,25.2762,-19.2566,2024-02-11 19:56:16.697,
-0.5198,0.0569,-0.6721,-18.7607,16.7389,-21.2402,2024-02-11 19:56:16.713,0.0
-0.5459,0.012,-0.6538,-18.0817,-1.9226,-21.8506,2024-02-11 19:56:16.737,0.0
-0.5542,0.0225,-0.6113,-17.6468,-12.7487,-19.7372,2024-02-11 19:56:16.770,0.0
-0.5635,0.0439,-0.5608,-17.2882,-11.7111,-17.8604,2024-02-11 19:56:16.770,0.0
-0.5642,0.0374,-0.5356,-16.7465,-1.5945,-16.922,2024-02-11 19:56:16.787,0.0
-0.564,0.0264,-0.5598,-16.7847,12.1841,-15.8997,2024-02-11 19:56:16.803,0.0
-0.564,-0.0066,-0.5825,-16.9754,21.8124,-14.534,2024-02-11 19:56:16.825,0.0
-0.5813,-0.0054,-0.5935,-15.8691,24.6201,-12.5732,2024-02-11 19:56:16.841,0.0
-0.6001,0.0037,-0.6204,-14.5035,24.4293,-10.4599,2024-02-11 19:56:16.858,0.0
-0.5906,0.0125,-0.6406,-13.4125,21.4691,-8.0566,2024-02-11 19:56:16.875,0.0
-0.5793,-0.0088,-0.6616,-14.2365,16.0904,-6.485,2024-02-11 19:56:16.899,0.0
-0.5642,-0.0171,-0.6499,-14.4043,9.1476,-5.0354,2024-02-11 19:56:16.916,0.0
-0.5342,-0.0249,-0.6477,-13.3743,1.6708,-5.0659,2024-02-11 19:56:16.928,0.0
-0.5298,-0.0195,-0.6033,-11.3678,-4.7226,-4.8752,2024-02-11 19:56:16.952,0.0
-0.5298,-0.0024,-0.5901,-9.4757,-4.1809,-4.5319,2024-02-11 19:56:16.968,0.0
-0.5366,0.0269,-0.6038,-8.6365,3.9062,-3.6469,2024-02-11 19:56:16.984,0.0
-0.5239,0.0361,-0.5959,-8.8425,13.3896,-4.0359,2024-02-11 19:56:17.000,0.0
-0.533,0.0376,-0.6145,-7.0877,18.1732,-3.9902,2024-02-11 19:56:17.017,0.0
-0.5371,0.0403,-0.6196,-4.9896,19.5389,-4.2191,2024-02-11 19:56:17.036,0.0
-0.5376,0.0327,-0.6567,-3.479,17.6392,-4.4556,2024-02-11 19:56:17.052,
-0.5286,0.0376,-0.6694,-3.0365,14.0381,-5.3406,2024-02-11 19:56:17.077,0.0
-0.5369,0.0261,-0.6611,-1.77,10.0632,-5.8289,2024-02-11 19:56:17.093,0.0
-0.5435,0.0149,-0.6565,-0.4044,4.7989,-5.8746,2024-02-11 19:56:17.109,0.0
-0.5232,0.0146,-0.6802,-0.6638,0.8698,-6.1493,2024-02-11 19:56:17.134,0.0
-0.5125,0.0129,-0.6746,-1.0147,-0.145,-5.4703,2024-02-11 19:56:17.150,0.0
-0.5,0.0134,-0.6448,-0.8163,-1.6479,-3.8223,2024-02-11 19:56:17.166,0.0
-0.5,0.0173,-0.6406,0.1602,-1.0605,-0.6866,2024-02-11 19:56:17.183,0.0
-0.4805,0.0142,-0.636,0.1144,4.2038,1.5106,2024-02-11 19:56:17.199,0.0
-0.4963,0.0117,-0.626,0.8011,11.0245,3.9749,2024-02-11 19:56:17.215,0.0
-0.5322,0.0071,-0.6079,2.1133,16.2811,6.8283,2024-02-11 19:56:17.239,0.0
-0.54,0.0085,-0.625,4.2267,20.3629,9.2163,2024-02-11 19:56:17.255,0.0
-0.5398,0.0251,-0.6443,6.9275,22.4457,11.5204,2024-02-11 19:56:17.271,0.0
-0.5344,0.0496,-0.6787,8.0414,19.2108,13.5651,2024-02-11 19:56:17.287,0.0
-0.509,0.051,-0.7048,6.3171,12.3062,13.237,2024-02-11 19:56:17.319,0.0
-0.5154,0.1016,-0.6919,5.249,4.0665,13.1607,2024-02-11 19:56:17.340,0.0
-0.5332,0.0901,-0.6816,4.3793,0.8392,13.1226,2024-02-11 19:56:17.340,0.0
-0.5544,0.0369,-0.6589,4.7531,2.2125,12.9776,2024-02-11 19:56:17.364,0.0
-0.5088,-0.0364,-0.646,5.1346,1.0681,13.4583,2024-02-11 19:56:17.381,0.0
-0.4585,-0.0618,-0.6323,4.1733,-2.9755,12.7945,2024-02-11 19:56:17.397,0.0
-0.4722,-0.0657,-0.6116,5.394,-0.0763,13.6185,2024-02-11 19:56:17.413,
-0.4561,-0.0471,-0.5952,9.4604,12.6419,15.9836,2024-02-11 19:56:17.429,0.0
-0.4712,-0.0183,-0.6211,12.3444,25.3983,18.5623,2024-02-11 19:56:17.445,0.0
-0.4622,0.0337,-0.6516,13.176,35.0876,22.6593,2024-02-11 19:56:17.469,0.0
-0.4666,0.0676,-0.6575,12.1918,39.3906,23.6664,2024-02-11 19:56:17.486,0.0
-0.4841,0.0764,-0.6951,10.582,39.8636,22.2168,2024-02-11 19:56:17.502,0.0
-0.4829,0.0583,-0.7266,10.7269,37.5748,19.9509,2024-02-11 19:56:17.527,0.0
-0.4878,0.0439,-0.7632,10.643,33.6685,18.6691,2024-02-11 19:56:17.535,0.0
-0.4893,0.0288,-0.7585,10.5057,20.4544,18.0206,2024-02-11 19:56:17.559,0.0
-0.4734,0.0422,-0.7642,10.7346,5.6458,16.1972,2024-02-11 19:56:17.575,0.0
-0.459,0.0876,-0.7825,8.934,-0.3204,14.8392,2024-02-11 19:56:17.591,0.0
-0.4058,0.0413,-0.7463,7.5455,-2.0676,8.3466,2024-02-11 19:56:17.608,0.0
-0.4236,0.092,-0.7141,1.7166,-6.6605,7.5302,2024-02-11 19:56:17.632,0.0
-0.4265,0.1057,-0.6743,-1.1063,-8.2397,5.455,2024-02-11 19:56:17.651,0.0
-0.427,0.0967,-0.6812,-2.0752,-2.7237,4.3106,2024-02-11 19:56:17.675,0.0
-0.4158,0.0862,-0.7073,-3.1128,5.1804,2.655,2024-02-11 19:56:17.691,0.0
-0.4067,0.0303,-0.7205,-2.4033,10.6201,-0.0763,2024-02-11 19:56:17.700,0.0
-0.4143,0.0122,-0.728,-1.0986,13.5727,-1.6861,2024-02-11 19:56:17.753,0.0
-0.4526,0.0215,-0.7058,-0.6485,14.9994,-1.7319,2024-02-11 19:56:17.753,0.0
-0.4717,0.0017,-0.6909,0.2975,13.4735,-2.4643,2024-02-11 19:56:17.753,0.0
-0.4678,-0.001,-0.7126,1.915,11.0626,-2.7313,2024-02-11 19:56:17.778,
-0.4375,0.0659,-0.7581,2.1515,8.3313,-2.121,2024-02-11 19:56:17.794,0.0
-0.4163,0.0562,-0.7517,2.0218,6.3858,-2.9449,2024-02-11 19:56:17.810,0.0
-0.4231,0.051,-0.73,2.0294,2.3804,-3.9444,2024-02-11 19:56:17.827,0.0
-0.4277,0.0415,-0.7004,0.7935,-0.9842,-4.3335,2024-02-11 19:56:17.843,0.0
-0.4268,0.0435,-0.697,-1.2894,-2.4414,-4.3411,2024-02-11 19:56:17.860,0.0
-0.426,0.0447,-0.6941,-2.9373,1.0147,-4.1656,2024-02-11 19:56:17.876,0.0
-0.4216,0.0547,-0.696,-3.0823,9.0485,-3.8147,2024-02-11 19:56:17.900,0.0
-0.4333,0.0769,-0.7295,-3.5706,14.3661,-4.1199,2024-02-11 19:56:17.916,0.0
-0.4421,0.0876,-0.7422,-4.3411,12.8403,-5.806,2024-02-11 19:56:17.941,0.0
-0.4297,0.0703,-0.7505,-5.2414,5.7144,-8.4,2024-02-11 19:56:17.957,0.0
-0.4102,0.0603,-0.7427,-6.3019,-1.0147,-11.0855,2024-02-11 19:56:17.973,0.0
-0.4216,0.0752,-0.7666,-7.8049,-2.0142,-11.9171,2024-02-11 19:56:17.981,0.0
-0.3958,0.0508,-0.7327,-9.0179,-4.4479,-14.8773,2024-02-11 19:56:18.018,0.0
-0.3906,0.0486,-0.7197,-9.7427,-3.1204,-15.4495,2024-02-11 19:56:18.026,0.0
-0.3975,0.0522,-0.7178,-9.6741,1.3275,-14.5798,2024-02-11 19:56:18.034,0.0
-0.4043,0.0481,-0.7292,-10.6812,5.249,-12.4969,2024-02-11 19:56:18.059,0.0
-0.418,0.0183,-0.7393,-10.9329,5.6763,-10.498,2024-02-11 19:56:18.084,0.0
-0.4397,0.0161,-0.7319,-10.5896,5.4169,-6.2866,2024-02-11 19:56:18.100,0.0
-0.4258,-0.012,-0.7419,-8.3237,6.0959,-3.7079,2024-02-11 19:56:18.124,0.0
-0.4285,-0.0374,-0.761,-5.249,3.8147,-1.9989,2024-02-11 19:56:18.141,
-0.4221,-0.0417,-0.7578,-2.9068,-0.8392,0.5569,2024-02-11 19:56:18.149,0.0
-0.4165,-0.0374,-0.7517,-0.3586,-3.6392,3.9902,2024-02-11 19:56:18.165,0.0
-0.4087,-0.019,-0.739,2.7695,-1.9913,9.6436,2024-02-11 19:56:18.189,0.0
-0.4043,-0.0139,-0.7107,5.9586,-1.0529,13.7711,2024-02-11 19:56:18.205,0.0
-0.3999,-0.002,-0.6865,9.8114,-0.9995,16.6016,2024-02-11 19:56:18.221,0.0
-0.3889,0.0076,-0.7087,13.0692,0.7477,17.7536,2024-02-11 19:56:18.237,0.0
-0.4023,0.0308,-0.7312,14.9612,3.8376,18.486,2024-02-11 19:56:18.261,0.0
-0.4065,0.0518,-0.7402,15.8768,5.5847,19.2566,2024-02-11 19:56:18.269,0.0
-0.4099,0.0645,-0.7495,16.2659,7.2708,20.1874,2024-02-11 19:56:18.293,0.0
-0.3948,0.0823,-0.7593,15.7166,7.4768,20.0806,2024-02-11 19:56:18.310,0.0
-0.3828,0.084,-0.7583,14.9155,5.3787,19.2184,2024-02-11 19:56:18.334,0.0
-0.3879,0.0847,-0.7544,13.3972,2.9373,18.3105,2024-02-11 19:56:18.350,0.0
-0.3904,0.0986,-0.7551,10.6888,2.3041,16.8686,2024-02-11 19:56:18.374,0.0
-0.3894,0.1013,-0.7473,8.3618,3.54,15.831,2024-02-11 19:56:18.382,0.0
-0.376,0.1089,-0.7385,6.7444,4.8294,13.4201,2024-02-11 19:56:18.408,0.0
-0.4087,0.1057,-0.7336,5.9814,5.4398,10.9482,2024-02-11 19:56:18.424,0.0
-0.4224,0.1016,-0.7224,5.7068,4.5853,8.7891,2024-02-11 19:56:18.457,0.0
-0.4167,0.1006,-0.7583,4.5319,3.2883,7.309,2024-02-11 19:56:18.457,0.0
-0.406,0.0879,-0.7581,3.212,1.8768,6.34,2024-02-11 19:56:18.474,0.0
-0.3965,0.0667,-0.7542,2.2278,-0.4883,5.5161,2024-02-11 19:56:18.498,
-0.3965,0.0581,-0.7383,1.6861,-2.9907,4.5395,2024-02-11 19:56:18.506,0.0
-0.3938,0.0532,-0.7195,2.2125,-2.3575,4.0131,2024-02-11 19:56:18.531,0.0
-0.3953,0.0623,-0.7258,2.0981,0.2594,4.2801,2024-02-11 19:56:18.547,0.0
-0.395,0.0725,-0.7383,0.7629,3.273,4.1351,2024-02-11 19:56:18.571,0.0
-0.4014,0.0769,-0.7229,-0.3738,5.8823,4.1351,2024-02-11 19:56:18.582,0.0
-0.3809,0.0808,-0.7515,-1.2054,6.8283,3.5934,2024-02-11 19:56:18.599,0.0
-0.3931,0.0625,-0.7363,-2.6093,5.6,2.4719,2024-02-11 19:56:18.615,0.0
-0.4189,0.0569,-0.7378,-3.4866,4.631,2.1515,2024-02-11 19:56:18.640,0.0
-0.4124,0.0642,-0.7412,-4.158,5.249,2.2354,2024-02-11 19:56:18.664,0.0
-0.4036,0.0601,-0.7271,-4.5395,4.9896,1.5869,2024-02-11 19:56:18.672,0.0
-0.4275,0.0498,-0.7354,-4.1733,4.0512,1.8768,2024-02-11 19:56:18.688,0.0
-0.4243,0.042,-0.7397,-4.0741,5.2719,1.7853,2024-02-11 19:56:18.711,0.0
-0.4443,0.0398,-0.7463,-2.6245,5.6686,2.1439,2024-02-11 19:56:18.727,0.0
-0.4292,0.0447,-0.7522,-1.6785,4.364,2.7161,2024-02-11 19:56:18.743,0.0
-0.4133,0.0435,-0.771,-1.8387,1.8845,2.3117,2024-02-11 19:56:18.767,0.0
-0.4124,0.0471,-0.7646,-2.0676,-1.236,1.503,2024-02-11 19:56:18.784,0.0
-0.4163,0.0657,-0.7468,-1.6937,-5.4703,0.7858,2024-02-11 19:56:18.800,0.0
-0.4011,0.0776,-0.7502,-1.5717,-7.7133,0.3204,2024-02-11 19:56:18.825,0.0
-0.396,0.0874,-0.7258,-2.2736,-7.9956,0.2823,2024-02-11 19:56:18.834,0.0
-0.3843,0.0952,-0.7256,-3.1662,-4.9133,0.1526,2024-02-11 19:56:18.858,
-0.3855,0.0852,-0.7217,-3.8147,-1.0452,-0.0916,2024-02-11 19:56:18.875,0.0
-0.3926,0.0769,-0.7278,-4.6692,2.4261,-0.0153,2024-02-11 19:56:18.892,0.0
-0.3831,0.0811,-0.7273,-4.7379,3.0899,-0.8926,2024-02-11 19:56:18.908,0.0
-0.3992,0.0706,-0.74,-3.8223,2.8687,-1.1444,2024-02-11 19:56:18.924,0.0
-0.3855,0.0627,-0.7568,-3.1357,2.8992,-1.9684,2024-02-11 19:56:18.941,0.0
-0.377,0.061,-0.761,-2.3727,1.297,-3.2043,2024-02-11 19:56:18.957,0.0
-0.3684,0.0601,-0.7585,-1.3962,-1.5564,-5.043,2024-02-11 19:56:18.982,0.0
-0.3833,0.0623,-0.7498,-1.1215,-2.4796,-5.5618,2024-02-11 19:56:19.001,0.0
-0.3826,0.0679,-0.7478,-1.3733,-1.7624,-5.7831,2024-02-11 19:56:19.019,0.0
-0.374,0.0686,-0.7517,-2.4414,-1.8158,-6.424,2024-02-11 19:56:19.043,0.0
-0.3728,0.0779,-0.749,-3.6011,-2.7008,-6.5308,2024-02-11 19:56:19.051,0.0
-0.3557,0.0811,-0.751,-4.8065,-1.358,-6.5002,2024-02-11 19:56:19.075,0.0
-0.3435,0.0833,-0.7454,-6.2256,1.8768,-7.2861,2024-02-11 19:56:19.083,0.0
-0.3401,0.0859,-0.7383,-6.5155,2.861,-7.4158,2024-02-11 19:56:19.107,0.0
-0.3455,0.0696,-0.7439,-7.8735,3.624,-6.7978,2024-02-11 19:56:19.124,0.0
-0.3584,0.0647,-0.7336,-9.8953,5.8289,-6.1035,2024-02-11 19:56:19.140,0.0
-0.3474,0.0603,-0.7429,-10.8261,10.0098,-6.073,2024-02-11 19:56:19.157,0.0
-0.313,0.0642,-0.7454,-9.6512,12.3062,-6.4316,2024-02-11 19:56:19.181,0.0
-0.3242,0.064,-0.7476,-8.6212,10.3683,-7.2861,2024-02-11 19:56:19.199,0.0
-0.3523,0.0791,-0.7607,-8.194,9.8267,-5.806,2024-02-11 19:56:19.215,
-0.3489,0.071,-0.7556,-10.2539,13.2446,-5.1575,2024-02-11 19:56:19.240,0.0
-0.3428,0.0569,-0.7532,-10.9634,14.3509,-4.0131,2024-02-11 19:56:19.248,0.0
-0.3069,0.061,-0.7603,-11.467,14.473,-4.5166,2024-02-11 19:56:19.272,0.0
-0.3052,0.0623,-0.7588,-10.7193,12.4741,-5.7678,2024-02-11 19:56:19.288,0.0
-0.2542,0.0664,-0.7654,-9.613,9.7046,-7.8583,2024-02-11 19:56:19.308,0.0
-0.2795,0.071,-0.718,-8.2016,4.776,-9.6512,2024-02-11 19:56:19.324,0.0
-0.2964,0.0879,-0.7537,-6.7673,5.2567,-5.043,2024-02-11 19:56:19.349,0.0
-0.2441,0.0947,-0.7974,-13.3514,11.1618,-4.921,2024-02-11 19:56:19.365,0.0
-0.2153,0.0347,-0.6829,-15.6784,7.9956,-9.697,2024-02-11 19:56:19.373,0.0
-0.1414,0.0693,-0.6697,-11.4441,4.4479,-13.4583,2024-02-11 19:56:19.393,0.0
-0.1028,0.1167,-0.7034,-8.5602,10.8566,-16.2964,2024-02-11 19:56:19.416,0.0
-0.1252,0.0889,-0.7092,-6.958,23.9182,-17.1356,2024-02-11 19:56:19.433,0.0
-0.1428,0.0571,-0.6658,-6.8054,26.413,-16.1743,2024-02-11 19:56:19.449,0.0
-0.1531,0.0522,-0.6199,-6.7291,24.5132,-11.1084,2024-02-11 19:56:19.465,0.0
-0.1426,0.0581,-0.6289,-6.7596,28.2364,-5.2948,2024-02-11 19:56:19.489,0.0
-0.1897,0.0332,-0.5994,-6.9656,30.9296,-1.0757,2024-02-11 19:56:19.505,0.0
-0.208,0.0134,-0.563,-5.7373,25.0778,5.8136,2024-02-11 19:56:19.523,0.0
-0.1738,-0.0171,-0.4119,-1.6937,13.6108,6.9809,2024-02-11 19:56:19.540,0.0
-0.2627,-0.021,-0.3401,7.7744,6.6071,5.9586,2024-02-11 19:56:19.564,0.0
-0.2949,0.0808,-0.4241,11.8942,20.2026,4.1275,2024-02-11 19:56:19.572,
-0.2627,0.176,-0.6108,17.1204,43.6096,5.0278,2024-02-11 19:56:19.596,0.0
0.0088,0.1025,-0.8379,21.431,53.8025,-4.9515,2024-02-11 19:56:19.612,0.0
0.1975,-0.0437,-0.8386,32.7606,43.7622,-36.2701,2024-02-11 19:56:19.628,0.0
-0.386,0.0369,-0.9158,41.4276,50.1404,-26.6495,2024-02-11 19:56:19.645,0.0
-0.5735,0.0881,-1.0713,33.7143,43.2205,-18.6768,2024-02-11 19:56:19.669,0.0
-0.5146,0.0359,-1.1677,17.0593,17.868,-15.6784,2024-02-11 19:56:19.685,0.0
-0.4434,-0.0327,-1.1155,0.0687,-21.8658,-8.8043,2024-02-11 19:56:19.693,0.0
-0.3191,-0.0366,-0.9209,-7.5912,-68.512,-4.1275,2024-02-11 19:56:19.717,0.0
-0.2686,0.0256,-0.6987,-4.1504,-83.5114,-3.273,2024-02-11 19:56:19.734,0.0
-0.3674,-0.0208,-0.6194,7.7286,-66.3986,-6.2485,2024-02-11 19:56:19.758,0.0
-0.3484,-0.0466,-0.7024,20.2332,-39.3066,-5.9052,2024-02-11 19:56:19.766,0.0
-0.3135,-0.0425,-0.8118,25.0473,-15.7166,-8.7357,2024-02-11 19:56:19.791,0.0
-0.3889,-0.124,-0.8745,25.7568,-9.5062,-11.6501,2024-02-11 19:56:19.807,0.0
-0.4033,-0.1128,-1.0168,20.3171,-5.8441,-13.6871,2024-02-11 19:56:19.823,0.0
-0.3547,-0.0686,-1.0933,5.8212,-12.0544,-15.3275,2024-02-11 19:56:19.847,0.0
-0.2927,-0.0852,-1.0203,-4.2648,-34.6985,-15.2435,2024-02-11 19:56:19.855,0.0
-0.3,-0.0652,-0.8811,-12.9089,-58.6548,-16.9373,2024-02-11 19:56:19.879,0.0
-0.3071,-0.051,-0.8083,-21.0266,-69.5496,-18.0283,2024-02-11 19:56:19.896,0.0
-0.2437,-0.0308,-0.7202,-24.9634,-75.2258,-19.4855,2024-02-11 19:56:19.920,0.0
-0.1882,-0.0039,-0.6086,-27.6794,-80.0018,-19.4321,2024-02-11 19:56:19.936,
-0.1538,-0.0142,-0.5535,-25.9705,-79.9713,-16.1896,2024-02-11 19:56:19.952,0.0
-0.136,-0.0217,-0.54,-27.9388,-77.6596,-7.6218,2024-02-11 19:56:20.000,0.0
-0.1604,-0.1003,-0.438,-28.9536,-71.4569,-3.3722,2024-02-11 19:56:20.000,0.0
-0.1941,-0.1504,-0.3311,-23.3231,-67.2073,-1.5564,2024-02-11 19:56:20.009,0.0
-0.2332,-0.1626,-0.3142,-16.5787,-59.6161,0.145,2024-02-11 19:56:20.025,0.0
-0.302,-0.1321,-0.4246,-16.0217,-41.0614,6.1188,2024-02-11 19:56:20.033,0.0
-0.4009,-0.1033,-0.4812,-21.0648,-26.9241,16.8228,2024-02-11 19:56:20.057,0.0
-0.313,-0.1572,-0.4551,-26.9012,-40.3137,24.9863,2024-02-11 19:56:20.066,0.0
-0.303,-0.1394,-0.3708,-25.5508,-58.1589,30.9448,2024-02-11 19:56:20.091,0.0
-0.3733,-0.0408,-0.4495,-25.5661,-60.3943,37.0636,2024-02-11 19:56:20.107,0.0
-0.3616,-0.0344,-0.4727,-33.6838,-64.4531,40.2451,2024-02-11 19:56:20.133,0.0
-0.3928,0.0195,-0.4543,-46.1273,-72.6471,42.2287,2024-02-11 19:56:20.141,0.0
-0.488,-0.0264,-0.3972,-56.2897,-89.5538,47.0886,2024-02-11 19:56:20.158,0.0
-0.6147,0.0959,-0.47,-66.6351,-103.2257,51.8799,2024-02-11 19:56:20.182,0.0
-0.6941,0.1616,-0.5681,-71.5103,-101.7914,62.5381,2024-02-11 19:56:20.199,0.0
-0.7854,0.3552,-0.6719,-79.1397,-60.2951,71.2662,2024-02-11 19:56:20.207,0.0
-0.938,0.7065,-0.8108,-104.7821,-19.9585,77.7588,2024-02-11 19:56:20.233,0.0
-1.1648,0.6042,-0.8396,-118.5989,-16.0828,77.713,2024-02-11 19:56:20.250,0.0
-0.9963,0.5044,-0.7869,-116.1652,-63.7283,57.1289,2024-02-11 19:56:20.266,0.0
-1.114,0.417,-0.8303,-86.792,-114.9673,28.7323,2024-02-11 19:56:20.282,
-1.1282,0.5552,-0.7703,-63.2248,-104.7058,14.1678,2024-02-11 19:56:20.307,0.0
-1.3992,0.8201,-0.6655,-30.7388,-113.8763,-15.7623,2024-02-11 19:56:20.331,0.0
-1.5879,0.8701,-0.8127,-28.1067,-170.5856,-15.5487,2024-02-11 19:56:20.341,0.0
-1.6609,0.9697,-0.8396,-47.493,-250.0,-5.0354,2024-02-11 19:56:20.382,0.0
-1.5898,1.061,-0.6953,-77.7054,-250.0,12.1307,2024-02-11 19:56:20.382,0.0
-1.4124,1.0337,-0.4109,-99.9298,-250.0,23.0637,2024-02-11 19:56:20.391,0.0
-1.283,0.7283,-0.2104,-114.6011,-250.0,32.5775,2024-02-11 19:56:20.415,0.0
-1.0713,0.1997,0.1392,-115.1352,-250.0,25.3754,2024-02-11 19:56:20.431,0.0
-1.1536,0.2136,0.48,-88.0051,-250.0,23.88,2024-02-11 19:56:20.447,0.0
-0.9309,0.1577,0.3145,-80.5893,-250.0,35.4843,2024-02-11 19:56:20.464,0.0
-0.3889,0.0044,0.3289,-76.2329,-250.0,44.0521,2024-02-11 19:56:20.480,0.0
0.0212,0.0181,0.3591,-67.749,-250.0,28.7552,2024-02-11 19:56:20.505,0.0
0.1182,0.0398,0.6887,-60.4248,-250.0,5.8746,2024-02-11 19:56:20.513,0.0
0.0679,-0.011,1.2026,-41.3589,-250.0,-0.7782,2024-02-11 19:56:20.537,0.0
0.1301,-0.1213,1.1443,-11.0321,-196.3882,4.9362,2024-02-11 19:56:20.553,0.0
0.2844,0.0486,0.9116,-4.8828,-86.8912,12.3749,2024-02-11 19:56:20.577,0.0
0.4346,0.2661,0.9377,-25.2075,-36.0413,24.0021,2024-02-11 19:56:20.609,0.0
0.5647,0.4778,1.3657,-39.856,-9.3231,23.0484,2024-02-11 19:56:20.609,0.0
0.5598,0.5793,1.5957,-27.2293,34.3628,19.7906,2024-02-11 19:56:20.625,0.0
0.7046,0.5786,1.2117,-9.697,92.6056,4.6234,2024-02-11 19:56:20.649,
0.8125,0.4619,0.7378,-19.8975,127.4185,-29.4495,2024-02-11 19:56:20.666,0.0
0.4429,0.3232,0.7222,-31.9748,131.0196,-56.5033,2024-02-11 19:56:20.683,0.0
-0.1182,0.1353,0.969,-34.874,81.8405,-44.1818,2024-02-11 19:56:20.699,0.0
-0.2341,0.1265,1.063,-24.1013,35.4385,-30.0827,2024-02-11 19:56:20.715,0.0
-0.1494,0.2747,0.9243,-18.4631,16.5253,-28.2669,2024-02-11 19:56:20.745,0.0
-0.0635,0.3777,0.8083,-21.904,-3.0136,-26.5427,2024-02-11 19:56:20.750,0.0
0.0559,0.344,0.8474,-32.4326,-17.3645,-28.5492,2024-02-11 19:56:20.774,0.0
-0.0068,0.1941,1.0369,-36.2396,-14.1754,-27.1149,2024-02-11 19:56:20.790,0.0
-0.0503,0.0779,1.1638,-24.2844,0.3738,-19.6457,2024-02-11 19:56:20.814,0.0
-0.1526,0.0181,1.1636,-8.8501,18.8751,-14.74,2024-02-11 19:56:20.830,0.0
-0.2798,0.0591,0.9956,1.0223,22.9111,-11.1771,2024-02-11 19:56:20.847,0.0
-0.3171,0.1926,0.8474,-8.4915,5.6534,-8.6594,2024-02-11 19:56:20.867,0.0
-0.3787,0.2429,1.0002,-17.2272,-20.7748,-3.6621,2024-02-11 19:56:20.883,0.0
-0.4922,0.2498,1.2227,-16.655,-37.3154,6.4926,2024-02-11 19:56:20.913,0.0
-0.5417,0.2356,1.3811,-10.0021,-33.9127,12.2986,2024-02-11 19:56:20.921,0.0
-0.552,0.2456,1.4282,-0.7553,-27.0157,13.1226,2024-02-11 19:56:20.937,0.0
-0.4661,0.2554,1.356,6.3248,-30.5862,10.7803,2024-02-11 19:56:20.953,0.0
-0.3545,0.2512,1.198,6.5613,-46.608,9.0179,2024-02-11 19:56:20.977,0.0
-0.2446,0.2395,1.0811,2.4643,-52.2308,8.2626,2024-02-11 19:56:20.993,0.0
-0.1321,0.2288,1.0303,-4.1504,-40.7791,4.9515,2024-02-11 19:56:21.010,
-0.0811,0.2134,0.9839,-7.309,-19.371,0.9689,2024-02-11 19:56:21.026,0.0
-0.0259,0.1709,0.9231,-7.0419,10.9177,-4.8523,2024-02-11 19:56:21.043,0.0
-0.032,0.1438,0.8586,-3.5019,40.062,-13.0768,2024-02-11 19:56:21.068,0.0
-0.082,0.1274,0.8206,1.4954,49.5529,-18.8141,2024-02-11 19:56:21.084,0.0
-0.1821,0.0911,0.8132,4.4861,41.1301,-21.9345,2024-02-11 19:56:21.101,0.0
-0.218,0.0686,0.7751,4.0436,26.4587,-22.5601,2024-02-11 19:56:21.118,0.0
-0.2478,0.0977,0.8186,1.6632,15.9225,-21.9116,2024-02-11 19:56:21.133,0.0
-0.2935,0.1399,0.8735,-0.0534,12.352,-18.7302,2024-02-11 19:56:21.150,0.0
-0.3635,0.175,0.9446,0.1678,14.0915,-11.528,2024-02-11 19:56:21.166,0.0
-0.4194,0.2141,0.9744,-0.1907,20.0043,-4.4098,2024-02-11 19:56:21.191,0.0
-0.4524,0.2649,0.9878,-4.8676,24.8489,-0.5951,2024-02-11 19:56:21.207,0.0
-0.5093,0.3225,1.0483,-8.4,25.5051,1.4801,2024-02-11 19:56:21.232,0.0
-0.5461,0.3445,1.0781,-10.3683,24.2157,1.1597,2024-02-11 19:56:21.248,0.0
-0.5327,0.3201,1.0671,-11.2686,22.0032,-1.3733,2024-02-11 19:56:21.265,0.0
-0.5522,0.2732,1.0615,-10.9711,16.2659,-3.9139,2024-02-11 19:56:21.281,0.0
-0.5442,0.2148,1.0229,-8.7662,6.3934,-5.2185,2024-02-11 19:56:21.297,0.0
-0.5273,0.1631,0.981,-5.7373,-2.0905,-4.425,2024-02-11 19:56:21.313,0.0
-0.4871,0.1228,0.9255,-4.2114,-5.0507,-2.3651,2024-02-11 19:56:21.337,0.0
-0.457,0.1213,0.8792,-5.9052,-4.0894,-0.5798,2024-02-11 19:56:21.362,0.0
-0.4236,0.1399,0.8672,-7.2174,-4.2725,0.2365,2024-02-11 19:56:21.386,
-0.3994,0.155,0.8765,-6.2332,-9.2468,0.885,2024-02-11 19:56:21.386,0.0
-0.3584,0.1599,0.8684,-5.3864,-14.9612,0.9689,2024-02-11 19:56:21.412,0.0
-0.3025,0.1497,0.8462,-5.7602,-15.6326,-0.0534,2024-02-11 19:56:21.420,0.0
-0.271,0.1348,0.8579,-6.4545,-12.1078,-1.4191,2024-02-11 19:56:21.444,0.0
-0.2505,0.124,0.8826,-7.4387,-6.3934,-2.739,2024-02-11 19:56:21.461,0.0
-0.2507,0.1243,0.915,-7.5989,-2.0218,-3.685,2024-02-11 19:56:21.477,0.0
-0.2908,0.1372,0.9551,-6.752,-2.9144,-4.1733,2024-02-11 19:56:21.493,0.0
-0.3142,0.1497,1.0042,-4.9667,-7.3929,-3.6545,2024-02-11 19:56:21.509,0.0
-0.3269,0.1592,1.0344,-3.8834,-9.0256,-3.3722,2024-02-11 19:56:21.534,0.0
-0.3149,0.1758,1.0535,-4.0207,-4.5624,-3.1128,2024-02-11 19:56:21.551,0.0
-0.3269,0.1863,1.0642,-4.7684,2.037,-3.2806,2024-02-11 19:56:21.567,0.0
-0.3279,0.1934,1.1018,-5.7297,4.2801,-3.9062,2024-02-11 19:56:21.583,0.0
-0.3188,0.21,1.0889,-6.813,1.6861,-5.0583,2024-02-11 19:56:21.601,0.0
-0.3054,0.2048,1.0994,-7.0343,-1.297,-5.455,2024-02-11 19:56:21.617,0.0
-0.2698,0.2092,1.0828,-6.1951,-0.6638,-5.9433,2024-02-11 19:56:21.642,0.0
-0.2534,0.2002,1.083,-3.6545,1.9913,-4.9362,2024-02-11 19:56:21.659,0.0
-0.2625,0.1809,1.0588,-0.0687,4.8904,-3.9673,2024-02-11 19:56:21.675,0.0
-0.2751,0.1633,1.0234,1.8845,7.9956,-2.6932,2024-02-11 19:56:21.700,0.0
-0.2715,0.1531,0.9993,2.7237,10.3836,-1.1597,2024-02-11 19:56:21.708,0.0
-0.2671,0.1543,0.9666,1.8539,14.1296,-0.3204,2024-02-11 19:56:21.732,
-0.2705,0.1643,0.9497,0.3891,19.5999,0.5417,2024-02-11 19:56:21.749,0.0
-0.3,0.1663,0.9258,-0.7248,24.6277,1.6708,2024-02-11 19:56:21.766,0.0
-0.3157,0.179,0.9082,-1.6632,25.7263,2.4261,2024-02-11 19:56:21.782,0.0
-0.3213,0.1875,0.9133,-3.3264,24.231,2.0294,2024-02-11 19:56:21.798,0.0
-0.3528,0.1833,0.9346,-4.097,21.0953,1.0681,2024-02-11 19:56:21.823,0.0
-0.3816,0.1729,0.9341,-4.4556,17.8909,0.4883,2024-02-11 19:56:21.836,0.0
-0.3948,0.1621,0.9429,-5.7373,15.2588,-0.6714,2024-02-11 19:56:21.853,0.0
-0.4214,0.1519,0.9456,-6.7291,11.528,-2.6627,2024-02-11 19:56:21.878,0.0
-0.4309,0.158,0.9551,-7.2784,6.6147,-3.8605,2024-02-11 19:56:21.894,0.0
-0.4324,0.1472,0.9836,-6.7368,1.6098,-5.3787,2024-02-11 19:56:21.910,0.0
-0.4307,0.1411,0.9958,-5.5847,1.2283,-6.2714,2024-02-11 19:56:21.926,0.0
-0.4238,0.1321,0.9849,-4.5929,3.2349,-6.0577,2024-02-11 19:56:21.951,0.0
-0.4106,0.1348,0.9702,-3.4943,5.7907,-5.2185,2024-02-11 19:56:21.968,0.0
-0.3867,0.1377,0.9475,-2.4643,8.3084,-4.3945,2024-02-11 19:56:21.984,0.0
-0.396,0.1494,0.9287,-2.2049,7.6218,-2.5558,2024-02-11 19:56:22.000,0.0
-0.3962,0.1431,0.9504,-2.037,5.3482,-1.3428,2024-02-11 19:56:22.024,0.0
-0.3892,0.1477,0.9583,-0.5417,3.3188,0.0992,2024-02-11 19:56:22.040,0.0
-0.3757,0.1355,0.9705,0.6943,3.2272,0.3738,2024-02-11 19:56:22.057,0.0
-0.364,0.1506,0.9568,1.0452,3.2883,0.2899,2024-02-11 19:56:22.074,0.0
-0.3672,0.1599,0.9587,0.473,2.8229,0.3586,2024-02-11 19:56:22.090,
-0.3633,0.1687,0.9314,-0.3586,3.6469,0.1297,2024-02-11 19:56:22.115,0.0
-0.3611,0.175,0.9338,-1.3275,7.3853,0.0916,2024-02-11 19:56:22.128,0.0
-0.3645,0.1665,0.9319,-2.327,11.0855,-0.5264,2024-02-11 19:56:22.152,0.0
-0.3774,0.1541,0.9319,-2.9449,10.2005,-1.4954,2024-02-11 19:56:22.168,0.0
-0.3906,0.1497,0.9348,-3.7766,4.8523,-2.6093,2024-02-11 19:56:22.184,0.0
-0.3892,0.1414,0.9575,-5.0812,-2.0752,-3.5019,2024-02-11 19:56:22.200,0.0
-0.3811,0.1326,0.9517,-4.921,-4.2572,-4.0207,2024-02-11 19:56:22.215,0.0
-0.3779,0.1392,0.9592,-4.0207,-5.188,-3.5858,2024-02-11 19:56:22.232,0.0
-0.3726,0.1423,0.9822,-2.7847,-6.5918,-3.6697,2024-02-11 19:56:22.257,0.0
-0.3828,0.1565,0.9546,-2.2583,-8.9417,-3.6926,2024-02-11 19:56:22.273,0.0
-0.3765,0.1541,0.9631,-1.8768,-10.025,-3.6545,2024-02-11 19:56:22.290,0.0
-0.3865,0.1497,1.0044,-0.2747,-5.8441,-2.4414,2024-02-11 19:56:22.306,0.0
-0.3823,0.1218,0.9941,2.1667,2.6169,-0.5112,2024-02-11 19:56:22.323,0.0
-0.3855,0.1152,0.9512,3.0518,8.0948,0.8087,2024-02-11 19:56:22.340,0.0
-0.3997,0.1096,0.9075,0.8011,5.2338,1.3962,2024-02-11 19:56:22.364,0.0
-0.387,0.1226,0.9038,-1.5717,-2.0294,0.7477,2024-02-11 19:56:22.380,0.0
-0.3674,0.1353,0.9387,-2.8839,-6.0196,0.0305,2024-02-11 19:56:22.412,0.0
-0.3391,0.1567,0.9839,-3.0212,-6.485,-1.03,2024-02-11 19:56:22.412,0.0
-0.3496,0.1829,1.0161,-0.8392,-4.3488,-2.3193,2024-02-11 19:56:22.436,0.0
-0.3406,0.1851,1.0127,1.091,1.442,-2.8229,2024-02-11 19:56:22.452,
-0.3608,0.1821,1.0073,2.4414,5.7602,-3.7003,2024-02-11 19:56:22.468,0.0
-0.3669,0.1863,0.9963,2.7161,6.1798,-5.0354,2024-02-11 19:56:22.484,0.0
-0.3706,0.1875,0.9907,1.6479,5.8212,-6.5231,2024-02-11 19:56:22.508,0.0
-0.3616,0.1699,0.9854,2.3956,10.7422,-7.2479,2024-02-11 19:56:22.524,0.0
-0.3672,0.1677,0.9885,3.8757,13.4811,-7.5531,2024-02-11 19:56:22.541,0.0
-0.3818,0.1584,0.9529,4.8599,13.6108,-7.2556,2024-02-11 19:56:22.557,0.0
-0.3694,0.1455,0.9355,3.7994,13.4048,-7.2937,2024-02-11 19:56:22.566,0.0
-0.342,0.1182,0.8904,2.9068,17.2119,-7.8583,2024-02-11 19:56:22.591,0.0
-0.3687,0.1089,0.8872,4.5395,18.4784,-7.2479,2024-02-11 19:56:22.608,0.0
-0.3608,0.103,0.8853,7.8125,19.3405,-6.134,2024-02-11 19:56:22.632,0.0
-0.3867,0.1162,0.863,11.5585,16.0446,-3.334,2024-02-11 19:56:22.657,0.0
-0.3735,0.123,0.8296,14.1373,15.892,-1.0605,2024-02-11 19:56:22.674,0.0
-0.3684,0.1011,0.8623,20.401,17.2043,0.7095,2024-02-11 19:56:22.682,0.0
-0.3418,0.0596,0.8262,28.4348,19.2337,3.5782,2024-02-11 19:56:22.698,0.0
-0.2976,0.0764,0.7683,26.2909,21.6446,7.5836,2024-02-11 19:56:22.714,0.0
-0.2654,0.1863,0.9246,15.8691,27.5497,9.8343,2024-02-11 19:56:22.738,0.0
-0.354,0.2456,1.0581,15.0681,40.5045,12.825,2024-02-11 19:56:22.754,0.0
-0.3499,0.2742,1.0623,17.4408,61.1801,16.922,2024-02-11 19:56:22.770,0.0
-0.3423,0.2871,0.9951,17.3645,74.9512,16.0217,2024-02-11 19:56:22.794,0.0
-0.3765,0.312,1.0017,17.6697,77.5681,13.5269,2024-02-11 19:56:22.810,
-0.3962,0.3645,0.9927,16.037,80.5817,7.6599,2024-02-11 19:56:22.826,0.0
-0.4524,0.3718,0.9585,17.1127,90.3778,-0.0534,2024-02-11 19:56:22.850,0.0
-0.479,0.3657,0.8767,16.1591,96.6797,-6.9733,2024-02-11 19:56:22.867,0.0
-0.5508,0.3694,0.8047,13.1378,93.544,-12.9623,2024-02-11 19:56:22.883,0.0
-0.5771,0.3989,0.761,9.14,84.1217,-17.5171,2024-02-11 19:56:22.899,0.0
-0.5569,0.3931,0.72,2.121,76.9501,-20.607,2024-02-11 19:56:22.916,0.0
-0.564,0.332,0.7209,0.9232,70.9229,-20.1416,2024-02-11 19:56:22.941,0.0
-0.5024,0.2046,0.7075,1.564,73.0286,-21.6064,2024-02-11 19:56:22.951,0.0
-0.5166,0.0754,0.7297,5.6686,82.6111,-25.9323,2024-02-11 19:56:22.975,0.0
-0.5776,0.0532,0.7095,8.6975,92.1478,-28.2516,2024-02-11 19:56:22.991,0.0
-0.6492,0.1548,0.6931,8.3008,100.9521,-27.9007,2024-02-11 19:56:23.008,0.0
-0.7097,0.2485,0.6421,6.9199,109.4971,-23.1934,2024-02-11 19:56:23.022,0.0
-0.7498,0.3054,0.5972,5.3177,112.2437,-21.7972,2024-02-11 19:56:23.046,0.0
-0.7998,0.3049,0.5247,2.6093,107.048,-20.7443,2024-02-11 19:56:23.063,0.0
-0.8572,0.2539,0.5208,0.4654,102.8137,-20.0272,2024-02-11 19:56:23.079,0.0
-0.9502,0.2024,0.5242,1.8768,103.1952,-15.6631,2024-02-11 19:56:23.095,0.0
-0.9243,0.2263,0.3657,1.0376,107.0328,-9.5139,2024-02-11 19:56:23.119,0.0
-0.8352,0.1545,0.3577,-3.952,100.9903,-5.1804,2024-02-11 19:56:23.136,0.0
-0.7822,0.1321,0.3538,-4.57,82.2449,-2.182,2024-02-11 19:56:23.169,0.0
-0.739,0.1475,0.4299,-6.3782,75.47,-4.3182,2024-02-11 19:56:23.169,
-0.7603,0.1494,0.4568,-0.0916,77.8046,-3.5553,2024-02-11 19:56:23.190,0.0
-0.7693,0.136,0.3833,3.2501,86.8912,-2.0981,2024-02-11 19:56:23.207,0.0
-0.7837,0.085,0.3037,4.57,98.5641,0.3815,2024-02-11 19:56:23.223,0.0
-0.759,0.0515,0.2744,1.7853,107.4066,-1.5411,2024-02-11 19:56:23.247,0.0
-0.761,0.0767,0.2549,1.9531,111.1679,-5.9052,2024-02-11 19:56:23.263,0.0
-0.7898,0.1414,0.2219,5.6152,114.7919,-10.582,2024-02-11 19:56:23.279,0.0
-0.7683,0.2078,0.1267,6.1264,113.5101,-14.3127,2024-02-11 19:56:23.297,0.0
-0.772,0.2996,0.0562,-0.0763,111.9614,-17.2729,2024-02-11 19:56:23.313,0.0
-0.8762,0.2524,0.1816,-3.9978,100.4562,-17.9977,2024-02-11 19:56:23.329,0.0
-0.8801,0.1609,0.241,2.1133,80.8945,-20.5231,2024-02-11 19:56:23.353,0.0
-0.8235,0.1023,0.1299,7.4234,74.3256,-22.9034,2024-02-11 19:56:23.377,0.0
-0.8511,0.082,0.0701,8.9264,82.4432,-20.2637,2024-02-11 19:56:23.385,0.0
-0.8557,-0.0095,-0.0498,8.4839,88.8748,-8.7738,2024-02-11 19:56:23.409,0.0
-0.9539,0.0354,-0.0903,8.9188,91.0721,-0.8926,2024-02-11 19:56:23.425,0.0
-0.8635,0.0981,-0.1858,4.5776,89.4241,6.2256,2024-02-11 19:56:23.450,0.0
-0.7749,0.1138,-0.1602,0.2594,81.6269,5.9128,2024-02-11 19:56:23.461,0.0
-0.7495,0.0984,-0.1006,-0.3815,67.4973,1.915,2024-02-11 19:56:23.485,0.0
-0.7671,0.1101,-0.1282,-1.1826,63.3926,1.2894,2024-02-11 19:56:23.501,0.0
-0.8032,0.1306,-0.1479,-3.83,76.8738,3.2272,2024-02-11 19:56:23.517,0.0
-0.7266,0.1426,-0.1675,-2.8,90.4007,1.8997,2024-02-11 19:56:23.533,
-0.7461,0.2178,-0.2507,-1.6174,93.7195,-0.4807,2024-02-11 19:56:23.550,0.0
-0.7424,0.2383,-0.3608,-0.1755,93.071,-2.1286,2024-02-11 19:56:23.574,0.0
-0.7173,0.2136,-0.3792,0.9842,86.9827,-3.1662,2024-02-11 19:56:23.591,0.0
-0.8403,0.1758,-0.2793,4.7455,66.5741,-1.5411,2024-02-11 19:56:23.608,0.0
-0.8062,0.0713,-0.2766,6.6299,52.887,2.655,2024-02-11 19:56:23.624,0.0
-0.7185,-0.0129,-0.2983,7.1869,52.2308,8.0795,2024-02-11 19:56:23.641,0.0
-0.7324,-0.0659,-0.2593,8.9951,56.778,11.1923,2024-02-11 19:56:23.657,0.0
-0.7017,0.0115,-0.2488,10.9177,61.9507,8.0338,2024-02-11 19:56:23.673,0.0
-0.7632,0.1182,-0.408,10.6125,68.7408,9.0179,2024-02-11 19:56:23.697,0.0
-0.71,0.2212,-0.4702,7.3929,69.7403,9.0714,2024-02-11 19:56:23.713,0.0
-0.6682,0.2073,-0.5149,6.9427,45.4788,5.1346,2024-02-11 19:56:23.730,0.0
-0.6748,0.1707,-0.4897,6.7139,24.7879,-0.3738,2024-02-11 19:56:23.746,0.0
-0.71,0.1326,-0.4336,7.2861,24.0555,-2.3422,2024-02-11 19:56:23.770,0.0
-0.8662,0.0486,-0.3887,6.7749,42.778,-1.5564,2024-02-11 19:56:23.786,0.0
-0.9028,0.1277,-0.3665,11.0931,54.3442,-1.442,2024-02-11 19:56:23.802,0.0
-0.9131,0.3408,-0.2883,20.813,46.4859,-17.6697,2024-02-11 19:56:23.826,0.0
-0.8782,0.3418,-0.5417,21.225,23.6511,-33.6685,2024-02-11 19:56:23.843,0.0
-0.7524,0.2913,-0.7739,1.5182,0.3128,-43.2358,2024-02-11 19:56:23.859,0.0
-0.7012,0.1877,-0.6162,-17.4332,-17.9367,-50.7202,2024-02-11 19:56:23.879,0.0
-0.717,0.0811,-0.5078,-31.1356,-27.3132,-49.0112,2024-02-11 19:56:23.895,
-0.8831,0.0439,-0.3611,-32.3257,-16.8915,-45.6848,2024-02-11 19:56:23.911,0.0
-0.9951,0.1926,-0.5525,-22.8958,5.3329,-41.5192,2024-02-11 19:56:23.935,0.0
-0.8398,0.3408,-0.7058,-27.1225,-1.4801,-42.3584,2024-02-11 19:56:23.951,0.0
-0.7786,0.2988,-0.6714,-40.8401,-20.1035,-48.2483,2024-02-11 19:56:23.968,0.0
-0.771,0.2227,-0.5483,-51.2085,-39.8178,-54.2984,2024-02-11 19:56:23.993,0.0
-0.7297,0.1697,-0.3997,-61.058,-53.3752,-60.7224,2024-02-11 19:56:24.009,0.0
-0.6621,0.1233,-0.2324,-66.6885,-49.3927,-66.4749,2024-02-11 19:56:24.025,0.0
-0.7715,0.0676,-0.1089,-67.0929,-41.7633,-66.4749,2024-02-11 19:56:24.041,0.0
-0.7817,-0.0061,-0.1345,-64.2929,-43.2434,-67.8635,2024-02-11 19:56:24.058,0.0
-0.7761,0.0178,-0.2002,-65.0864,-40.8401,-71.8231,2024-02-11 19:56:24.083,0.0
-0.7246,0.0347,-0.2397,-64.0488,-42.3203,-77.6138,2024-02-11 19:56:24.099,0.0
-0.6885,0.0022,-0.2271,-61.3251,-35.1639,-81.8405,2024-02-11 19:56:24.124,0.0
-0.7368,-0.0781,-0.2061,-57.9605,-31.7917,-81.9092,2024-02-11 19:56:24.132,0.0
-0.772,-0.0654,-0.1108,-51.9943,-38.7955,-89.1953,2024-02-11 19:56:24.148,0.0
-0.842,-0.0493,-0.0864,-45.9824,-51.2695,-97.9004,2024-02-11 19:56:24.172,0.0
-0.9473,-0.0557,-0.1719,-53.0167,-53.2227,-93.7119,2024-02-11 19:56:24.188,0.0
-0.8506,-0.1055,-0.2649,-67.9703,-46.9666,-83.6182,2024-02-11 19:56:24.208,0.0
-0.8665,-0.2214,-0.3445,-82.0923,-39.1846,-74.2569,2024-02-11 19:56:24.233,0.0
-0.7573,-0.2439,-0.2361,-84.816,-46.9971,-74.9435,2024-02-11 19:56:24.249,0.0
-0.7468,-0.283,-0.0757,-73.7076,-63.6063,-83.9386,2024-02-11 19:56:24.265,
-0.7822,-0.3049,0.0093,-57.0984,-70.1065,-90.8813,2024-02-11 19:56:24.281,0.0
-0.77,-0.3701,0.0608,-45.3949,-70.137,-91.2247,2024-02-11 19:56:24.297,0.0
-0.5784,-0.4392,0.0701,-39.2303,-79.3991,-98.6557,2024-02-11 19:56:24.313,0.0
-0.6426,-0.5312,-0.0652,-37.5671,-54.4662,-107.6736,2024-02-11 19:56:24.337,0.0
-0.7205,-0.5627,-0.1431,-34.5001,-10.2768,-95.6116,2024-02-11 19:56:24.353,0.0
-0.8247,-0.7224,-0.1558,-28.3737,19.722,-81.2454,2024-02-11 19:56:24.370,0.0
-0.9807,-0.8423,-0.1599,-22.0566,53.3142,-58.8684,2024-02-11 19:56:24.386,0.0
-1.0413,-0.74,-0.3413,-26.1078,91.7358,-28.2898,2024-02-11 19:56:24.411,0.0
-1.0181,-0.4854,-0.5718,-48.317,108.4137,1.9989,2024-02-11 19:56:24.427,0.0
-0.905,-0.3362,-0.7793,-81.0471,107.4371,26.1002,2024-02-11 19:56:24.451,0.0
-0.8567,-0.1379,-0.7993,-107.4448,113.6169,50.8881,2024-02-11 19:56:24.468,0.0
-0.6204,0.0042,-0.7556,-115.387,112.5641,37.6511,2024-02-11 19:56:24.476,0.0
-0.5979,0.1528,-0.7039,-100.7538,115.2115,17.189,2024-02-11 19:56:24.500,0.0
-0.6384,0.2068,-0.6057,-85.701,91.3467,0.7019,2024-02-11 19:56:24.516,0.0
-0.5718,0.2019,-0.5342,-66.9937,71.2509,-5.867,2024-02-11 19:56:24.532,0.0
-0.4915,0.158,-0.53,-54.0009,73.0438,-3.8376,2024-02-11 19:56:24.557,0.0
-0.5435,0.1665,-0.5449,-50.2014,88.9893,2.9755,2024-02-11 19:56:24.567,0.0
-0.6143,0.1785,-0.6738,-56.1295,102.0889,11.1618,2024-02-11 19:56:24.591,0.0
-0.5862,0.1675,-0.7808,-57.0602,104.2252,10.025,2024-02-11 19:56:24.608,0.0
-0.5945,0.1396,-0.8232,-52.1698,92.1173,9.6436,2024-02-11 19:56:24.625,
-0.5818,0.0305,-0.7673,-38.6047,60.9665,13.0997,2024-02-11 19:56:24.641,0.0
-0.6174,-0.0596,-0.7036,-23.7579,36.6364,19.4397,2024-02-11 19:56:24.666,0.0
-0.6536,-0.1089,-0.6943,-12.2528,27.9388,26.7258,2024-02-11 19:56:24.682,0.0
-0.5686,-0.1289,-0.6704,-2.1667,29.068,35.0723,2024-02-11 19:56:24.700,0.0
-0.5371,-0.1279,-0.6663,3.3569,34.7061,41.5115,2024-02-11 19:56:24.716,0.0
-0.5144,-0.0771,-0.7209,3.54,35.6369,48.3627,2024-02-11 19:56:24.732,0.0
-0.5256,-0.0554,-0.7146,2.0828,35.5148,54.3823,2024-02-11 19:56:24.756,0.0
-0.4966,-0.0293,-0.7036,-0.6943,37.0941,54.9316,2024-02-11 19:56:24.772,0.0
-0.4954,0.0015,-0.6562,1.6785,39.3448,49.4614,2024-02-11 19:56:24.788,0.0
-0.4954,0.0498,-0.6733,7.8735,37.7655,42.511,2024-02-11 19:56:24.812,0.0
-0.4832,0.1047,-0.71,10.9711,31.4865,41.0156,2024-02-11 19:56:24.832,0.0
-0.4431,0.0908,-0.7571,8.7891,23.8266,41.0385,2024-02-11 19:56:24.849,0.0
-0.4363,0.0178,-0.7668,4.6616,16.4261,38.0478,2024-02-11 19:56:24.866,0.0
-0.4797,-0.0342,-0.7368,3.2959,9.5596,33.9737,2024-02-11 19:56:24.882,0.0
-0.5359,-0.0037,-0.6904,6.6376,-3.0365,33.0734,2024-02-11 19:56:24.900,0.0
-0.5315,-0.0051,-0.6892,9.8419,-12.7258,34.0271,2024-02-11 19:56:24.916,0.0
-0.4917,-0.0276,-0.6714,11.0321,-21.8887,34.9426,2024-02-11 19:56:24.956,0.0
-0.4543,-0.0161,-0.6438,12.4359,-30.6854,35.0418,2024-02-11 19:56:24.956,0.0
-0.4292,-0.0315,-0.5759,16.8457,-41.42,33.7524,2024-02-11 19:56:24.974,0.0
-0.4026,0.0156,-0.5483,22.6974,-47.2336,31.7383,2024-02-11 19:56:24.991,
-0.3945,0.0498,-0.5339,28.2516,-47.1725,35.202,2024-02-11 19:56:25.015,0.0
-0.3643,0.082,-0.5366,31.3034,-45.7535,41.0767,2024-02-11 19:56:25.024,0.0
-0.3171,0.0752,-0.5339,30.7388,-39.0244,43.6783,2024-02-11 19:56:25.050,0.0
-0.2915,0.0679,-0.4854,28.656,-33.1573,40.6723,2024-02-11 19:56:25.067,0.0
-0.3232,0.1011,-0.4592,30.4718,-28.6026,41.5115,2024-02-11 19:56:25.085,0.0
-0.3733,0.1831,-0.4902,31.4102,-12.4893,44.2657,2024-02-11 19:56:25.101,0.0
-0.3857,0.2119,-0.4829,27.3438,5.1422,46.5546,2024-02-11 19:56:25.117,0.0
-0.4492,0.2051,-0.4639,28.656,13.504,46.669,2024-02-11 19:56:25.141,0.0
-0.4861,0.2288,-0.4851,28.6179,8.7051,46.4096,2024-02-11 19:56:25.149,0.0
-0.5044,0.2502,-0.4714,26.7105,-6.012,43.5791,2024-02-11 19:56:25.174,0.0
-0.5364,0.2002,-0.4556,26.4664,-21.9879,42.0761,2024-02-11 19:56:25.191,0.0
-0.4966,0.1548,-0.48,27.0844,-31.7764,40.9088,2024-02-11 19:56:25.207,0.0
-0.4541,0.1406,-0.4832,27.7176,-35.8124,40.7791,2024-02-11 19:56:25.223,0.0
-0.4321,0.0889,-0.4124,30.3879,-38.6047,38.3911,2024-02-11 19:56:25.248,0.0
-0.4448,0.0437,-0.3938,33.6838,-36.5677,37.5595,2024-02-11 19:56:25.264,0.0
-0.4285,0.0139,-0.4014,36.1328,-22.0871,34.9579,2024-02-11 19:56:25.280,0.0
-0.4456,0.0549,-0.3999,39.1769,-5.3329,32.2266,2024-02-11 19:56:25.304,0.0
-0.4929,0.1165,-0.3982,40.0848,9.9335,30.4871,2024-02-11 19:56:25.312,0.0
-0.4888,0.1328,-0.4602,38.5742,23.0026,27.9846,2024-02-11 19:56:25.332,0.0
-0.5391,0.1399,-0.512,36.8195,36.9492,27.2827,2024-02-11 19:56:25.348,
-0.5291,0.1575,-0.6089,36.8118,48.9273,27.7863,2024-02-11 19:56:25.372,0.0
-0.5347,0.1541,-0.658,36.171,38.3911,28.0151,2024-02-11 19:56:25.388,0.0
-0.5447,0.1069,-0.6548,32.0129,17.8604,26.7334,2024-02-11 19:56:25.412,0.0
-0.5298,0.053,-0.5896,28.7018,-8.1024,23.6359,2024-02-11 19:56:25.429,0.0
-0.5017,0.0781,-0.5715,28.4424,-20.8359,20.9732,2024-02-11 19:56:25.444,0.0
-0.4976,0.1519,-0.5352,28.4119,-14.4577,19.6533,2024-02-11 19:56:25.461,0.0
-0.5247,0.1853,-0.512,29.9835,6.6071,20.6985,2024-02-11 19:56:25.477,0.0
-0.541,0.1821,-0.5454,30.5099,24.437,22.6898,2024-02-11 19:56:25.501,0.0
-0.5344,0.1587,-0.5845,28.7781,30.365,23.6053,2024-02-11 19:56:25.526,0.0
-0.4678,0.1001,-0.6365,25.795,27.9465,23.6816,2024-02-11 19:56:25.535,0.0
-0.5828,0.061,-0.6653,21.9498,28.5873,26.7563,2024-02-11 19:56:25.551,0.0
-0.5818,0.0547,-0.6846,19.9432,35.1257,28.8696,2024-02-11 19:56:25.567,0.0
-0.5588,0.0737,-0.7,21.1029,37.262,28.9688,2024-02-11 19:56:25.616,0.0
-0.5183,0.0781,-0.7268,21.9955,23.7885,27.9236,2024-02-11 19:56:25.624,0.0
-0.52,0.0601,-0.698,21.2173,3.9825,26.268,2024-02-11 19:56:25.624,0.0
-0.5474,0.0103,-0.6497,20.6375,-11.4365,25.1617,2024-02-11 19:56:25.633,0.0
-0.5483,-0.0222,-0.637,20.546,-13.6108,26.3519,2024-02-11 19:56:25.657,0.0
-0.4978,-0.0073,-0.6335,21.7133,-6.3629,28.2974,2024-02-11 19:56:25.681,0.0
-0.447,0.051,-0.665,22.6669,4.5395,30.8609,2024-02-11 19:56:25.705,0.0
-0.4146,0.0896,-0.6816,22.2473,12.4054,32.8064,2024-02-11 19:56:25.737,
-0.4189,0.1003,-0.6509,20.9808,13.3743,35.3394,2024-02-11 19:56:25.737,0.0
-0.4414,0.0774,-0.627,19.0048,13.1302,36.6058,2024-02-11 19:56:25.745,0.0
-0.4402,0.0488,-0.6733,19.4092,18.1351,34.935,2024-02-11 19:56:25.757,0.0
-0.4124,0.0564,-0.7241,20.7596,28.801,31.9824,2024-02-11 19:56:25.774,0.0
-0.3889,0.0659,-0.7646,21.4615,32.0435,28.8086,2024-02-11 19:56:25.798,0.0
-0.3713,0.0632,-0.804,21.2173,23.3383,25.8408,2024-02-11 19:56:25.815,0.0
-0.3821,0.041,-0.7847,18.9209,9.9716,23.4604,2024-02-11 19:56:25.840,0.0
-0.4043,-0.009,-0.728,20.4086,2.8076,22.2397,2024-02-11 19:56:25.848,0.0
-0.3984,-0.0625,-0.7058,26.6571,7.1716,21.6827,2024-02-11 19:56:25.888,0.0
-0.4087,-0.0562,-0.7002,32.9819,18.364,23.7503,2024-02-11 19:56:25.888,0.0
-0.4756,-0.0232,-0.6638,34.7519,27.153,23.7579,2024-02-11 19:56:25.905,0.0
-0.5408,-0.0295,-0.6277,35.6598,26.268,25.8255,2024-02-11 19:56:25.921,0.0
-0.5347,-0.0933,-0.6428,35.8582,19.2871,24.3683,2024-02-11 19:56:25.945,0.0
-0.5229,-0.1121,-0.6807,32.6309,17.3416,20.8588,2024-02-11 19:56:25.962,0.0
-0.4839,-0.0847,-0.7161,28.0228,19.371,17.6392,2024-02-11 19:56:25.978,0.0
-0.4504,-0.0537,-0.7346,24.6887,19.7067,15.564,2024-02-11 19:56:25.994,0.0
-0.4687,-0.0146,-0.7463,22.8653,18.2724,14.7705,2024-02-11 19:56:26.010,0.0
-0.4888,0.0305,-0.7578,18.2648,12.4207,15.0681,2024-02-11 19:56:26.026,0.0
-0.5122,0.0774,-0.7512,10.8109,4.3564,15.9073,2024-02-11 19:56:26.051,0.0
-0.5205,0.0947,-0.7119,2.861,-6.6452,15.7852,2024-02-11 19:56:26.067,
-0.5056,0.0339,-0.698,-5.3864,-21.019,13.8092,2024-02-11 19:56:26.084,0.0
-0.4658,-0.0024,-0.6848,-13.6566,-27.42,12.8479,2024-02-11 19:56:26.100,0.0
-0.429,0.0244,-0.6792,-18.9819,-19.6304,13.0234,2024-02-11 19:56:26.118,0.0
-0.4058,0.0522,-0.6609,-16.5939,-2.4185,11.528,2024-02-11 19:56:26.142,0.0
-0.4033,0.0706,-0.7021,-7.8049,13.2828,9.6588,2024-02-11 19:56:26.150,0.0
-0.4136,0.0952,-0.7734,1.9836,25.8484,6.1264,2024-02-11 19:56:26.174,0.0
-0.4272,0.02,-0.8015,8.2016,20.3094,-1.0376,2024-02-11 19:56:26.191,0.0
-0.5356,-0.0325,-0.8123,7.0419,-7.2861,-4.9667,2024-02-11 19:56:26.213,0.0
-0.4761,-0.0276,-0.7791,3.3798,-25.5508,-6.691,2024-02-11 19:56:26.229,0.0
-0.4241,0.0088,-0.7341,1.3428,-36.2778,-5.2643,2024-02-11 19:56:26.246,0.0
-0.3979,0.054,-0.688,0.4425,-30.9677,-3.7003,2024-02-11 19:56:26.273,0.0
-0.3833,0.0801,-0.6631,0.061,-19.1879,-2.8229,2024-02-11 19:56:26.281,0.0
-0.3838,0.1143,-0.6768,-1.3657,-5.8975,-2.3117,2024-02-11 19:56:26.297,0.0
-0.3777,0.1152,-0.7012,-3.8147,3.3951,-2.7084,2024-02-11 19:56:26.322,0.0
-0.3887,0.1067,-0.7097,-4.6387,6.3858,-3.1509,2024-02-11 19:56:26.338,0.0
-0.4065,0.0876,-0.7271,-5.7144,8.3923,-4.0588,2024-02-11 19:56:26.355,0.0
-0.4385,0.0762,-0.7373,-7.2708,11.9324,-4.7531,2024-02-11 19:56:26.371,0.0
-0.448,0.0774,-0.7354,-6.6833,10.498,-4.8904,2024-02-11 19:56:26.387,0.0
-0.4363,0.0908,-0.7407,-6.2103,3.6087,-5.5618,2024-02-11 19:56:26.411,0.0
-0.4397,0.0818,-0.7219,-6.279,-6.8054,-5.8517,2024-02-11 19:56:26.427,
-0.4302,0.0681,-0.7104,-4.6844,-11.6882,-4.7836,2024-02-11 19:56:26.443,0.0
-0.4224,0.0615,-0.7043,-3.334,-10.2921,-4.7989,2024-02-11 19:56:26.460,0.0
-0.4238,0.0637,-0.6826,-2.4872,-3.9978,-4.7226,2024-02-11 19:56:26.485,0.0
-0.4338,0.0605,-0.6699,-1.358,3.6469,-4.1504,2024-02-11 19:56:26.501,0.0
-0.4458,0.0667,-0.7017,-0.7858,9.5978,-3.6163,2024-02-11 19:56:26.518,0.0
-0.45,0.0815,-0.7131,-0.8163,11.116,-2.861,2024-02-11 19:56:26.534,0.0
-0.4541,0.0828,-0.7236,-1.5106,9.3231,-1.9608,2024-02-11 19:56:26.550,0.0
-0.4497,0.084,-0.7173,-2.5558,4.5166,-1.3275,2024-02-11 19:56:26.574,0.0
-0.4417,0.0688,-0.7224,-2.3041,0.5875,-0.618,2024-02-11 19:56:26.593,0.0
-0.4316,0.0703,-0.7236,-2.2507,-0.1373,-0.5798,2024-02-11 19:56:26.609,0.0
-0.4255,0.0503,-0.7036,-1.7929,0.2213,-0.3357,2024-02-11 19:56:26.838,0.0
-0.4331,0.0481,-0.6975,-0.3662,1.2589,0.1755,2024-02-11 19:56:26.838,0.0
-0.4395,0.0486,-0.7019,0.8163,2.7161,0.1297,2024-02-11 19:56:26.844,0.0
-0.4434,0.0515,-0.6958,1.7166,5.4779,0.7553,2024-02-11 19:56:26.844,0.0
-0.449,0.0618,-0.6951,2.4033,8.0643,2.2659,2024-02-11 19:56:26.844,0.0
-0.439,0.0642,-0.7144,3.3493,9.7275,3.8071,2024-02-11 19:56:26.844,0.0
-0.4424,0.0642,-0.7058,3.5248,8.7585,4.6234,2024-02-11 19:56:26.844,0.0
-0.45,0.0549,-0.7153,3.6392,6.1951,5.0735,2024-02-11 19:56:26.844,0.0
-0.4543,0.0491,-0.7146,3.6316,4.9667,5.455,2024-02-11 19:56:26.902,0.0
-0.4512,0.0742,-0.7102,10.0555,4.0817,11.4594,2024-02-11 19:56:26.918,
-0.446,0.0757,-0.7271,9.1782,1.8234,10.9558,2024-02-11 19:56:26.935,0.0
-0.4519,0.0796,-0.7107,10.0784,-1.0147,10.8719,2024-02-11 19:56:26.959,0.0
-0.4404,0.0605,-0.7124,11.0016,-2.8381,10.9329,2024-02-11 19:56:26.976,0.0
-0.4358,0.0398,-0.7085,11.734,-3.7766,10.5972,2024-02-11 19:56:27.010,0.0
-0.4412,0.031,-0.7002,12.6419,-4.6768,11.6043,2024-02-11 19:56:27.010,0.0
-0.4395,0.0337,-0.7244,13.0005,-3.8147,13.8397,2024-02-11 19:56:27.034,0.0
-0.4436,0.0452,-0.7102,12.3444,-3.2959,15.2969,2024-02-11 19:56:27.050,0.0
-0.4512,0.0503,-0.7085,12.6038,-3.8605,16.655,2024-02-11 19:56:27.066,0.0
-0.4419,0.0488,-0.7146,13.2523,-4.8981,17.2958,2024-02-11 19:56:27.082,0.0
-0.4492,0.0496,-0.71,14.2746,-6.6147,17.6163,2024-02-11 19:56:27.102,0.0
-0.4512,0.0439,-0.7117,15.2359,-6.4163,18.7302,2024-02-11 19:56:27.118,0.0
-0.4373,0.0569,-0.7212,16.2659,-5.3787,19.5084,2024-02-11 19:56:27.135,0.0
-0.439,0.0452,-0.7129,17.4789,-6.1646,20.4849,2024-02-11 19:56:27.159,0.0
-0.4497,0.0444,-0.7207,18.8828,-9.201,21.6293,2024-02-11 19:56:27.183,0.0
-0.448,0.0183,-0.7031,20.4773,-11.3602,23.4528,2024-02-11 19:56:27.194,0.0
-0.4485,0.0115,-0.7117,22.0108,-12.0621,25.177,2024-02-11 19:56:27.210,0.0
-0.4578,0.0129,-0.6917,23.1018,-10.8643,27.4506,2024-02-11 19:56:27.227,0.0
-0.4678,0.0093,-0.6887,25.3067,-8.4152,30.304,2024-02-11 19:56:27.243,0.0
-0.458,0.0024,-0.6929,27.2675,-5.7297,32.7911,2024-02-11 19:56:27.267,0.0
-0.4331,-0.0024,-0.7065,28.595,-7.103,33.4396,2024-02-11 19:56:27.283,
-0.4407,0.0083,-0.7212,28.7094,-8.3847,34.7672,2024-02-11 19:56:27.303,0.0
-0.4285,0.0159,-0.717,29.0833,-8.1558,35.5377,2024-02-11 19:56:27.319,0.0
-0.4399,0.0256,-0.6895,30.3345,-6.4621,36.8729,2024-02-11 19:56:27.335,0.0
-0.4536,0.0376,-0.6716,31.6086,-5.9357,37.7274,2024-02-11 19:56:27.351,0.0
-0.4324,0.0491,-0.7107,31.3034,-3.2654,37.9486,2024-02-11 19:56:27.375,0.0
-0.4265,0.0488,-0.7009,30.2658,-0.5493,38.1546,2024-02-11 19:56:27.391,0.0
-0.427,0.0532,-0.6951,29.1443,5.1117,37.1857,2024-02-11 19:56:27.419,0.0
-0.4446,0.0481,-0.7,29.0222,8.1329,36.2701,2024-02-11 19:56:27.436,0.0
-0.4507,0.0574,-0.7117,27.4429,8.4839,35.0037,2024-02-11 19:56:27.444,0.0
-0.4492,0.0752,-0.7351,25.4211,6.8207,33.4167,2024-02-11 19:56:27.460,0.0
-0.4473,0.0771,-0.7332,23.262,4.9057,32.1426,2024-02-11 19:56:27.476,0.0
-0.4414,0.0811,-0.7336,21.5302,3.9825,30.3345,2024-02-11 19:56:27.503,0.0
-0.4236,0.0894,-0.7322,18.959,3.9749,26.9165,2024-02-11 19:56:27.519,0.0
-0.4309,0.0862,-0.7271,17.5095,3.54,24.2386,2024-02-11 19:56:27.535,0.0
-0.426,0.0784,-0.7061,16.1057,3.5629,22.2168,2024-02-11 19:56:27.551,0.0
-0.4382,0.0674,-0.7095,15.9607,5.6076,21.2021,2024-02-11 19:56:27.573,0.0
-0.4146,0.0806,-0.7305,14.2288,8.4,19.6762,2024-02-11 19:56:27.595,0.0
-0.4258,0.0974,-0.7104,11.6577,9.5062,16.7999,2024-02-11 19:56:27.611,0.0
-0.4448,0.085,-0.6956,11.2152,9.2468,14.9307,2024-02-11 19:56:27.627,0.0
-0.4619,0.0701,-0.7178,10.3455,8.1863,14.3204,2024-02-11 19:56:27.643,
-0.4531,0.0654,-0.7368,8.5831,6.4316,13.1607,2024-02-11 19:56:27.668,0.0
-0.4395,0.0576,-0.7397,7.2632,4.9667,12.2757,2024-02-11 19:56:27.685,0.0
-0.4285,0.052,-0.7283,6.7444,4.303,11.8713,2024-02-11 19:56:27.702,0.0
-0.418,0.0657,-0.7356,6.3477,4.1199,11.4212,2024-02-11 19:56:27.717,0.0
-0.4165,0.0835,-0.7202,5.188,3.5477,10.2005,2024-02-11 19:56:27.733,0.0
-0.4165,0.0869,-0.7158,5.0049,5.6915,9.4833,2024-02-11 19:56:27.749,0.0
-0.416,0.0742,-0.7212,5.0278,8.7128,8.6746,2024-02-11 19:56:27.774,0.0
-0.4165,0.0596,-0.7307,5.0507,10.4904,8.11,2024-02-11 19:56:27.790,0.0
-0.4099,0.0596,-0.7437,3.9215,9.0561,5.9052,2024-02-11 19:56:27.810,0.0
-0.4106,0.0591,-0.7458,3.2959,6.6299,5.1041,2024-02-11 19:56:27.826,0.0
-0.4167,0.0698,-0.749,1.3885,5.5847,4.2725,2024-02-11 19:56:27.851,0.0
-0.4241,0.0781,-0.728,0.2899,5.0812,3.1738,2024-02-11 19:56:27.867,0.0
-0.4253,0.0637,-0.7305,0.0,5.2032,2.3575,2024-02-11 19:56:27.891,0.0
-0.4248,0.0652,-0.7473,-0.0229,4.837,1.7319,2024-02-11 19:56:27.899,0.0
-0.4155,0.0649,-0.759,-0.5798,4.4403,1.6251,2024-02-11 19:56:27.915,0.0
-0.3955,0.0579,-0.7546,-1.3962,4.5166,0.1984,2024-02-11 19:56:27.940,0.0
-0.3877,0.0525,-0.7375,-1.1597,4.4861,-0.7858,2024-02-11 19:56:27.949,0.0
-0.3984,0.0552,-0.7444,-0.9918,3.8223,-0.9308,2024-02-11 19:56:27.965,0.0
-0.3894,0.0608,-0.749,-1.9226,3.4561,-1.7853,2024-02-11 19:56:27.990,0.0
-0.3914,0.0676,-0.7419,-2.8229,4.4479,-2.6703,2024-02-11 19:56:28.008,
-0.3979,0.0803,-0.7502,-3.418,5.1727,-3.3035,2024-02-11 19:56:28.024,0.0
-0.3967,0.074,-0.752,-4.2496,6.4468,-4.0588,2024-02-11 19:56:28.041,0.0
-0.3923,0.0693,-0.772,-5.394,6.7596,-5.5389,2024-02-11 19:56:28.065,0.0
-0.3743,0.0776,-0.7634,-6.1798,4.8141,-6.7749,2024-02-11 19:56:28.081,0.0
-0.3872,0.0818,-0.7634,-7.1106,2.6016,-7.9803,2024-02-11 19:56:28.098,0.0
-0.3967,0.0769,-0.7568,-8.6288,1.9379,-9.0866,2024-02-11 19:56:28.114,0.0
-0.3979,0.083,-0.7351,-9.5291,3.3951,-10.582,2024-02-11 19:56:28.138,0.0
-0.3887,0.0835,-0.739,-9.8114,5.0354,-11.5433,2024-02-11 19:56:28.154,0.0
-0.3833,0.0701,-0.7402,-10.4065,6.5994,-12.7487,2024-02-11 19:56:28.171,0.0
-0.3784,0.0583,-0.7563,-10.8871,8.4915,-14.1373,2024-02-11 19:56:28.195,0.0
-0.405,0.0601,-0.7524,-12.0087,7.3395,-15.3275,2024-02-11 19:56:28.203,0.0
-0.4026,0.0789,-0.7505,-13.0615,7.7591,-16.8076,2024-02-11 19:56:28.228,0.0
-0.3982,0.0881,-0.7742,-14.5874,5.9433,-18.3945,2024-02-11 19:56:28.244,0.0
-0.3916,0.0896,-0.7595,-15.9073,3.7842,-19.7525,2024-02-11 19:56:28.260,0.0
-0.3794,0.1055,-0.7581,-17.9749,3.4027,-21.843,2024-02-11 19:56:28.279,0.0
-0.3757,0.1064,-0.7634,-19.1116,3.1128,-24.4293,2024-02-11 19:56:28.304,0.0
-0.376,0.0994,-0.7524,-20.0729,2.9755,-26.7715,2024-02-11 19:56:28.320,0.0
-0.3901,0.104,-0.7463,-20.462,4.425,-29.3655,2024-02-11 19:56:28.337,0.0
-0.3789,0.0789,-0.7522,-20.668,5.4703,-31.5018,2024-02-11 19:56:28.362,0.0
-0.3716,0.0713,-0.7573,-21.0571,5.4626,-33.5999,2024-02-11 19:56:28.378,
-0.3816,0.0579,-0.7578,-21.9574,3.5629,-35.5988,2024-02-11 19:56:28.394,0.0
-0.3975,0.0454,-0.7417,-22.85,1.8616,-37.2543,2024-02-11 19:56:28.418,0.0
-0.4072,0.0415,-0.7358,-23.2925,1.915,-38.0707,2024-02-11 19:56:28.426,0.0
-0.415,0.061,-0.7378,-24.6506,1.9226,-37.6892,2024-02-11 19:56:28.443,0.0
-0.4119,0.0706,-0.7456,-25.5966,1.4267,-37.2238,2024-02-11 19:56:28.459,0.0
-0.3982,0.0659,-0.7441,-26.0849,1.6861,-36.7126,2024-02-11 19:56:28.484,0.0
-0.3989,0.0415,-0.7437,-25.7568,1.3275,-36.5829,2024-02-11 19:56:28.500,0.0
-0.3975,0.0413,-0.7444,-25.1694,0.9613,-36.232,2024-02-11 19:56:28.524,0.0
-0.3857,0.0254,-0.7498,-25.7416,1.4801,-37.7502,2024-02-11 19:56:28.532,0.0
-0.4033,0.0342,-0.7397,-26.1536,2.3117,-38.1393,2024-02-11 19:56:28.556,0.0
-0.4077,0.0618,-0.7253,-25.1541,3.0441,-36.9415,2024-02-11 19:56:28.572,0.0
-0.3953,0.0713,-0.7461,-23.9868,4.7913,-35.2783,2024-02-11 19:56:28.597,0.0
-0.3838,0.0593,-0.7527,-24.3988,7.1793,-34.6756,2024-02-11 19:56:28.605,0.0
-0.3892,0.0349,-0.7344,-23.3536,9.1629,-34.4543,2024-02-11 19:56:28.630,0.0
-0.3999,0.0156,-0.7351,-22.1939,8.9417,-34.8969,2024-02-11 19:56:28.640,0.0
-0.3911,0.0059,-0.7483,-20.6223,8.2321,-34.4849,2024-02-11 19:56:28.657,0.0
-0.3933,0.0234,-0.7507,-20.2026,4.7989,-32.9132,2024-02-11 19:56:28.681,0.0
-0.4102,0.0244,-0.7383,-20.6223,2.8,-30.9219,2024-02-11 19:56:28.697,0.0
-0.4131,0.0369,-0.7283,-20.7825,3.9673,-29.541,2024-02-11 19:56:28.714,0.0
-0.4065,0.0422,-0.7266,-20.6223,5.7602,-28.3432,2024-02-11 19:56:28.732,
-0.4089,0.0393,-0.7239,-20.2026,5.9357,-27.3972,2024-02-11 19:56:28.749,0.0
-0.4109,0.0398,-0.7449,-20.0577,6.3477,-26.1002,2024-02-11 19:56:28.773,0.0
-0.4126,0.0427,-0.7388,-19.6686,7.4081,-24.7421,2024-02-11 19:56:28.781,0.0
-0.4094,0.0442,-0.7334,-19.5999,8.1177,-23.6893,2024-02-11 19:56:28.806,0.0
-0.4102,0.052,-0.7344,-19.7144,7.6065,-23.6053,2024-02-11 19:56:28.822,0.0
-0.4136,0.0574,-0.7346,-18.692,5.9967,-23.262,2024-02-11 19:56:28.839,0.0
-0.4138,0.0671,-0.7395,-17.7994,5.7526,-22.4915,2024-02-11 19:56:28.855,0.0
-0.4131,0.0618,-0.7366,-17.1204,5.3024,-22.2855,2024-02-11 19:56:28.879,0.0
-0.4146,0.0579,-0.7354,-16.5253,4.1122,-22.4991,2024-02-11 19:56:28.895,0.0
-0.4182,0.0571,-0.7346,-16.243,3.8147,-22.0642,2024-02-11 19:56:28.911,0.0
-0.4106,0.0486,-0.7327,-15.2588,3.4332,-21.5759,2024-02-11 19:56:28.932,0.0
-0.4014,0.0474,-0.7292,-14.3585,2.9144,-20.8817,2024-02-11 19:56:28.948,0.0
-0.4006,0.0476,-0.7327,-13.5803,4.1504,-19.8364,2024-02-11 19:56:28.965,0.0
-0.3999,0.052,-0.7349,-13.0386,5.8975,-18.28,2024-02-11 19:56:28.981,0.0
-0.4016,0.052,-0.7375,-12.2223,7.0419,-16.8991,2024-02-11 19:56:29.005,0.0
-0.4067,0.0554,-0.7363,-11.5891,7.8812,-16.1514,2024-02-11 19:56:29.021,0.0
-0.3987,0.0537,-0.7429,-10.8795,7.8812,-15.213,2024-02-11 19:56:29.040,0.0
-0.3987,0.0513,-0.741,-9.7275,6.691,-14.4653,2024-02-11 19:56:29.057,0.0
-0.3975,0.0549,-0.75,-9.0027,5.661,-14.0533,2024-02-11 19:56:29.081,0.0
-0.394,0.0571,-0.7502,-8.5297,5.0964,-13.6108,2024-02-11 19:56:29.089,
-0.3848,0.0654,-0.7507,-8.3771,4.9744,-13.1149,2024-02-11 19:56:29.114,0.0
-0.3948,0.064,-0.7402,-8.0643,4.7684,-12.4283,2024-02-11 19:56:29.130,0.0
-0.4114,0.0654,-0.7351,-7.2937,4.0131,-11.7874,2024-02-11 19:56:29.148,0.0
-0.4021,0.0603,-0.7419,-6.7673,5.2414,-10.4294,2024-02-11 19:56:29.164,0.0
-0.3931,0.062,-0.7622,-6.6605,6.6986,-10.0479,2024-02-11 19:56:29.189,0.0
-0.3928,0.0637,-0.7529,-6.813,6.8893,-9.8801,2024-02-11 19:56:29.205,0.0
-0.397,0.0601,-0.749,-6.5002,6.0272,-9.3002,2024-02-11 19:56:29.221,0.0
-0.3953,0.0559,-0.7515,-6.0577,5.1651,-9.1171,2024-02-11 19:56:29.240,0.0
-0.3911,0.0471,-0.7612,-5.4016,3.8757,-8.3847,2024-02-11 19:56:29.257,0.0
-0.3892,0.0544,-0.748,-4.921,2.4414,-8.0338,2024-02-11 19:56:29.273,0.0
-0.3911,0.0571,-0.752,-4.7836,2.2659,-7.6294,2024-02-11 19:56:29.293,0.0
-0.3931,0.0603,-0.7441,-4.1504,3.2501,-7.0648,2024-02-11 19:56:29.318,0.0
-0.3982,0.0623,-0.7493,-3.8986,3.8452,-6.2561,2024-02-11 19:56:29.334,0.0
-0.396,0.0525,-0.7417,-3.3951,3.212,-5.6305,2024-02-11 19:56:29.350,0.0
-0.3958,0.0408,-0.7446,-2.7847,2.449,-4.837,2024-02-11 19:56:29.366,0.0
-0.3862,0.0449,-0.7415,-2.2888,3.1891,-4.0283,2024-02-11 19:56:29.391,0.0
-0.386,0.0564,-0.7539,-2.0905,3.0594,-3.8605,2024-02-11 19:56:29.399,0.0
-0.386,0.0632,-0.7507,-1.6785,2.9907,-3.212,2024-02-11 19:56:29.423,0.0
-0.3779,0.0632,-0.7576,-1.8311,3.4027,-3.1891,2024-02-11 19:56:29.440,0.0
-0.395,0.0625,-0.7476,-2.3575,3.9749,-3.273,2024-02-11 19:56:29.450,
-0.3997,0.0581,-0.7385,-1.236,3.2425,-2.6627,2024-02-11 19:56:29.474,0.0
-0.3879,0.0527,-0.7634,-0.9232,3.212,-3.2806,2024-02-11 19:56:29.490,0.0
-0.3765,0.0674,-0.7678,-1.976,2.2049,-4.8141,2024-02-11 19:56:29.507,0.0
-0.386,0.0728,-0.7622,-2.3346,0.9613,-5.0735,2024-02-11 19:56:29.523,0.0
-0.3901,0.0847,-0.7625,-3.2272,1.5259,-4.776,2024-02-11 19:56:29.542,0.0
-0.374,0.0854,-0.7661,-4.3259,1.8463,-5.0812,2024-02-11 19:56:29.575,0.0
-0.3667,0.0864,-0.7588,-5.127,1.236,-6.3705,2024-02-11 19:56:29.583,0.0
-0.3765,0.0825,-0.7566,-5.9814,0.6714,-7.1564,2024-02-11 19:56:29.616,0.0
-0.3835,0.074,-0.7502,-6.5842,0.6866,-8.2779,2024-02-11 19:56:29.616,0.0
-0.3928,0.074,-0.7583,-6.7215,1.6937,-9.2545,2024-02-11 19:56:29.632,0.0
-0.386,0.0703,-0.7527,-7.1487,3.0365,-9.6741,2024-02-11 19:56:29.651,0.0
-0.3943,0.0627,-0.7617,-7.0877,0.7019,-10.3073,2024-02-11 19:56:29.675,0.0
-0.3955,0.0444,-0.7568,-6.9275,-1.9989,-10.6812,2024-02-11 19:56:29.692,0.0
-0.396,0.0332,-0.7756,-7.6141,-4.0054,-11.8408,2024-02-11 19:56:29.733,0.0
-0.4036,0.0247,-0.76,-7.6828,-6.3248,-12.4817,2024-02-11 19:56:29.733,0.0
-0.3962,0.033,-0.7676,-7.5607,-9.4757,-13.5574,2024-02-11 19:56:29.751,0.0
-0.3804,0.0413,-0.7563,-8.5526,-11.8179,-14.7781,2024-02-11 19:56:29.759,0.0
-0.3723,0.063,-0.7559,-9.697,-11.9705,-16.3574,2024-02-11 19:56:29.775,0.0
-0.3616,0.0671,-0.7397,-11.3144,-9.2392,-18.5242,2024-02-11 19:56:29.800,0.0
-0.3728,0.0776,-0.7258,-12.6343,-4.982,-21.0495,2024-02-11 19:56:29.817,
-0.3743,0.0852,-0.7256,-14.2288,-0.4883,-24.0326,2024-02-11 19:56:29.833,0.0
-0.3784,0.0898,-0.7456,-16.1133,1.8692,-27.1225,2024-02-11 19:56:29.858,0.0
-0.375,0.1011,-0.751,-18.7378,2.2659,-30.159,2024-02-11 19:56:29.866,0.0
-0.3801,0.0979,-0.749,-21.1334,1.503,-33.1573,2024-02-11 19:56:29.891,0.0
-0.3801,0.0911,-0.7671,-23.7122,1.7242,-36.3007,2024-02-11 19:56:29.915,0.0
-0.3691,0.0916,-0.7542,-25.4288,1.6785,-39.7568,2024-02-11 19:56:29.931,0.0
-0.366,0.0806,-0.7517,-27.2446,1.6556,-42.8925,2024-02-11 19:56:29.958,0.0
-0.3765,0.0762,-0.738,-28.7933,2.3727,-45.2652,2024-02-11 19:56:29.966,0.0
-0.3867,0.083,-0.751,-30.6091,3.891,-47.5845,2024-02-11 19:56:29.977,0.0
-0.3936,0.0889,-0.7463,-32.6385,4.7989,-50.1175,2024-02-11 19:56:30.001,0.0
-0.384,0.0928,-0.75,-33.3633,3.212,-51.8341,2024-02-11 19:56:30.017,0.0
-0.375,0.0798,-0.7583,-34.3475,2.0447,-53.4668,2024-02-11 19:56:30.035,0.0
-0.3674,0.0701,-0.7529,-35.5988,1.915,-54.8325,2024-02-11 19:56:30.059,0.0
-0.3704,0.0486,-0.7437,-35.6522,3.4485,-56.2363,2024-02-11 19:56:30.067,0.0
-0.374,0.0371,-0.7461,-35.5911,5.6686,-56.8161,2024-02-11 19:56:30.092,0.0
-0.3765,0.0317,-0.7632,-35.3775,8.194,-56.7398,2024-02-11 19:56:30.109,0.0
-0.3809,0.0334,-0.7598,-37.0255,10.0021,-57.045,2024-02-11 19:56:30.134,0.0
-0.3823,0.04,-0.7678,-37.2696,9.3536,-57.2205,2024-02-11 19:56:30.150,0.0
-0.3694,0.0479,-0.7617,-37.4756,7.5684,-57.7393,2024-02-11 19:56:30.158,0.0
-0.3818,0.0598,-0.7759,-38.2538,5.9128,-57.8079,2024-02-11 19:56:30.183,
-0.3689,0.0552,-0.7715,-38.8489,5.2795,-57.3273,2024-02-11 19:56:30.208,0.0
-0.3723,0.0447,-0.7639,-39.6042,4.4708,-57.3654,2024-02-11 19:56:30.216,0.0
-0.3738,0.043,-0.7593,-39.4058,5.2185,-57.045,2024-02-11 19:56:30.232,0.0
-0.373,0.0466,-0.7537,-39.5355,7.4768,-56.1371,2024-02-11 19:56:30.258,0.0
-0.3845,0.0457,-0.729,-38.8107,8.7967,-54.6417,2024-02-11 19:56:30.266,0.0
-0.4126,0.0344,-0.7239,-36.9873,10.788,-52.3758,2024-02-11 19:56:30.295,0.0
-0.4192,0.0283,-0.7288,-34.5154,13.0386,-50.1709,2024-02-11 19:56:30.303,0.0
-0.4153,0.0142,-0.7571,-32.6233,10.9787,-46.936,2024-02-11 19:56:30.328,0.0
-0.4155,0.0164,-0.7649,-31.2424,7.431,-43.6783,2024-02-11 19:56:30.344,0.0
-0.4238,-0.0015,-0.7444,-28.0914,6.7368,-39.4135,2024-02-11 19:56:30.360,0.0
-0.4241,-0.0334,-0.7375,-23.6206,5.5771,-34.2178,2024-02-11 19:56:30.384,0.0
-0.4282,-0.0396,-0.7302,-19.8746,5.1193,-28.7018,2024-02-11 19:56:30.400,0.0
-0.4309,-0.0457,-0.7375,-15.564,5.6381,-23.2086,2024-02-11 19:56:30.417,0.0
-0.4497,-0.0474,-0.7178,-11.6577,6.2332,-17.9291,2024-02-11 19:56:30.433,0.0
-0.4229,-0.0337,-0.7161,-7.6675,5.2872,-14.1678,2024-02-11 19:56:30.450,0.0
-0.4233,-0.0212,-0.7227,-3.7766,4.0665,-11.0474,2024-02-11 19:56:30.468,0.0
-0.4041,0.0415,-0.7512,-1.297,5.8594,-6.5002,2024-02-11 19:56:30.492,0.0
-0.3992,0.0566,-0.7415,-0.1297,9.2392,-2.8229,2024-02-11 19:56:30.517,0.0
-0.3943,0.0615,-0.7573,1.091,9.8648,-0.4959,2024-02-11 19:56:30.525,0.0
-0.3953,0.0679,-0.7603,1.3123,7.6675,1.4725,2024-02-11 19:56:30.542,
-0.4001,0.0786,-0.7629,1.7624,4.776,3.3112,2024-02-11 19:56:30.569,0.0
-0.3853,0.0735,-0.7727,1.9379,2.7924,4.5242,2024-02-11 19:56:30.585,0.0
-0.3777,0.0574,-0.7603,2.327,0.7248,5.4092,2024-02-11 19:56:30.601,0.0
-0.3701,0.0388,-0.7349,3.746,0.7095,5.9814,2024-02-11 19:56:30.617,0.0
-0.3816,0.0413,-0.7361,4.7607,3.3417,7.019,2024-02-11 19:56:30.633,0.0
-0.3831,0.0405,-0.7278,5.4779,7.1106,7.8125,2024-02-11 19:56:30.658,0.0
-0.3801,0.0439,-0.7266,6.9046,8.6441,9.8801,2024-02-11 19:56:30.693,0.0
-0.3801,0.0374,-0.7297,8.2397,9.6359,12.0392,2024-02-11 19:56:30.693,0.0
-0.3604,0.0305,-0.7705,8.9874,12.4054,14.1602,2024-02-11 19:56:30.710,0.0
-0.3567,0.0386,-0.7849,9.1476,13.5345,15.48,2024-02-11 19:56:30.734,0.0
-0.3611,0.0605,-0.7876,9.2697,10.1242,16.1285,2024-02-11 19:56:30.751,0.0
-0.374,0.0732,-0.7761,9.491,3.8071,17.3721,2024-02-11 19:56:30.767,0.0
-0.3794,0.0547,-0.7671,10.6659,0.1068,18.6386,2024-02-11 19:56:30.784,0.0
-0.3477,0.0496,-0.7925,11.3373,-0.061,19.4931,2024-02-11 19:56:30.808,0.0
-0.3218,0.0393,-0.7559,12.5732,0.0305,20.3018,2024-02-11 19:56:30.824,0.0
-0.344,0.0105,-0.7432,14.8544,-1.976,22.9721,2024-02-11 19:56:30.840,0.0
-0.322,0.0105,-0.7415,15.5182,-0.5722,25.0168,2024-02-11 19:56:30.856,0.0
-0.3115,0.0222,-0.7476,15.6021,3.0289,26.5732,2024-02-11 19:56:30.873,0.0
-0.3027,0.0356,-0.7529,16.7007,7.4234,29.129,2024-02-11 19:56:30.889,0.0
-0.2817,0.0334,-0.7729,16.1667,8.7433,30.5634,2024-02-11 19:56:30.913,
-0.2852,0.0288,-0.7729,15.0757,8.255,32.1426,2024-02-11 19:56:30.946,0.0
-0.3008,0.0269,-0.7725,14.1373,6.691,33.5464,2024-02-11 19:56:30.954,0.0
-0.2776,0.0183,-0.7715,14.3204,7.8506,34.4009,2024-02-11 19:56:30.962,0.0
-0.2383,0.031,-0.7869,15.8463,10.643,33.8669,2024-02-11 19:56:30.978,0.0
-0.2698,0.063,-0.7761,17.2501,11.8027,31.9595,2024-02-11 19:56:31.002,0.0
-0.3157,0.0808,-0.7654,18.6996,12.5809,30.4184,2024-02-11 19:56:31.018,0.0
-0.2727,0.0779,-0.8325,18.6996,17.8757,28.8544,2024-02-11 19:56:31.042,0.0
-0.2146,0.071,-0.8901,18.8141,18.8065,28.7704,2024-02-11 19:56:31.050,0.0
-0.1021,0.0576,-0.9177,16.0446,5.4626,28.5492,2024-02-11 19:56:31.067,0.0
-0.1091,0.0583,-0.8105,12.1155,-18.5013,26.5503,2024-02-11 19:56:31.091,0.0
-0.0757,0.0647,-0.7595,6.6223,-31.7078,24.9481,2024-02-11 19:56:31.107,0.0
-0.063,0.052,-0.6313,3.952,-34.256,22.6364,2024-02-11 19:56:31.132,0.0
-0.0225,0.042,-0.5337,7.164,-27.5726,22.0795,2024-02-11 19:56:31.140,0.0
-0.0522,0.0386,-0.4351,11.3983,-17.7841,19.6075,2024-02-11 19:56:31.165,0.0
-0.1558,0.0493,-0.3574,16.2735,-6.9733,22.0032,2024-02-11 19:56:31.191,0.0
-0.1606,0.022,-0.4307,16.5405,13.2828,28.0304,2024-02-11 19:56:31.200,0.0
-0.1536,-0.0305,-0.5332,14.7171,41.9312,32.4783,2024-02-11 19:56:31.224,0.0
-0.1721,-0.0408,-0.5881,13.7863,58.6166,33.5159,2024-02-11 19:56:31.233,0.0
-0.1946,-0.0034,-0.6675,11.8484,64.537,34.7061,2024-02-11 19:56:31.257,0.0
-0.1875,0.0283,-0.8101,11.5967,78.3081,31.3568,2024-02-11 19:56:31.273,
-0.1926,0.0437,-0.9595,16.777,86.1053,29.9301,2024-02-11 19:56:31.289,0.0
-0.1758,0.1006,-0.9817,22.934,51.3077,26.3062,2024-02-11 19:56:31.305,0.0
-0.2607,0.1382,-1.0359,25.7492,-1.5869,19.5999,2024-02-11 19:56:31.321,0.0
-0.3408,0.0637,-0.978,26.825,-43.3807,15.2588,2024-02-11 19:56:31.346,0.0
-0.2798,0.1123,-0.95,22.4915,-73.8068,13.0234,2024-02-11 19:56:31.354,0.0
-0.2485,0.1262,-0.7373,14.4577,-88.3484,9.9106,2024-02-11 19:56:31.378,0.0
-0.2744,0.0317,-0.5806,16.7542,-90.0421,13.0539,2024-02-11 19:56:31.394,0.0
-0.22,-0.0225,-0.5837,19.8288,-80.8487,17.6392,2024-02-11 19:56:31.411,0.0
-0.1519,-0.012,-0.5496,19.6228,-66.9098,20.0729,2024-02-11 19:56:31.435,0.0
-0.1479,0.0417,-0.5571,17.0212,-52.9099,19.3253,2024-02-11 19:56:31.451,0.0
-0.26,0.0752,-0.55,17.0441,-37.6511,22.2473,2024-02-11 19:56:31.469,0.0
-0.2817,0.1045,-0.5525,18.1885,-30.6168,23.7503,2024-02-11 19:56:31.485,0.0
-0.365,0.1328,-0.6125,18.1961,-31.5704,24.0707,2024-02-11 19:56:31.501,0.0
-0.4036,0.1099,-0.6902,15.274,-37.529,25.7797,2024-02-11 19:56:31.517,0.0
-0.4023,0.0442,-0.7688,13.9618,-47.2565,27.4887,2024-02-11 19:56:31.542,0.0
-0.3298,0.0645,-0.7937,11.9934,-64.476,24.2615,2024-02-11 19:56:31.559,0.0
-0.3384,0.0779,-0.7769,9.2087,-81.2454,23.6282,2024-02-11 19:56:31.575,0.0
-0.332,0.0645,-0.7317,6.2943,-96.8094,24.6277,2024-02-11 19:56:31.600,0.0
-0.3386,0.043,-0.6807,5.5389,-114.1129,25.2075,2024-02-11 19:56:31.610,0.0
-0.3083,0.0132,-0.6279,4.3716,-125.7477,25.5661,2024-02-11 19:56:31.627,
-0.2124,-0.0508,-0.5859,4.0359,-128.8452,18.4555,2024-02-11 19:56:31.643,0.0
-0.1833,-0.051,-0.4778,6.1493,-124.9237,11.3831,2024-02-11 19:56:31.664,0.0
-0.272,0.0156,-0.4192,6.897,-110.3821,8.316,2024-02-11 19:56:31.680,0.0
-0.3801,0.009,-0.3672,2.5711,-112.1292,17.5323,2024-02-11 19:56:31.704,0.0
-0.3928,0.0103,-0.4243,-3.3951,-115.4327,25.6271,2024-02-11 19:56:31.729,0.0
-0.4368,0.0405,-0.4175,-13.3591,-117.3172,33.6075,2024-02-11 19:56:31.737,0.0
-0.5159,0.0144,-0.4124,-22.7585,-117.0654,43.663,2024-02-11 19:56:31.769,0.0
-0.5144,0.0103,-0.4058,-22.3312,-116.2415,45.6467,2024-02-11 19:56:31.777,0.0
-0.5542,0.1128,-0.4102,-19.8364,-120.2011,45.3033,2024-02-11 19:56:31.802,0.0
-0.7322,0.1011,-0.4436,-21.4844,-128.9062,54.0619,2024-02-11 19:56:31.813,0.0
-0.8313,0.1792,-0.5706,-28.0533,-121.3684,68.3441,2024-02-11 19:56:31.821,0.0
-0.8118,0.4917,-0.6343,-35.7361,-88.4705,74.3866,2024-02-11 19:56:31.845,0.0
-1.0767,0.5813,-0.623,-61.2335,-83.3206,78.476,2024-02-11 19:56:31.867,0.0
-1.249,0.2415,-0.3083,-64.7659,-104.9271,65.5365,2024-02-11 19:56:31.883,0.0
-1.5476,-0.2151,-0.123,-22.1558,-171.9284,40.7791,2024-02-11 19:56:31.907,0.0
-1.6948,-0.1406,-0.2002,18.1656,-195.282,32.1121,2024-02-11 19:56:31.916,0.0
-1.5588,0.0815,-0.3181,41.5268,-214.8895,16.8991,2024-02-11 19:56:31.933,0.0
-1.8333,0.5703,-0.0735,27.1912,-250.0,3.2043,2024-02-11 19:56:31.958,0.0
-2.334,0.9451,0.0828,-3.2806,-250.0,2.0065,2024-02-11 19:56:31.975,0.0
-2.397,1.0425,0.127,-38.9481,-250.0,24.3988,2024-02-11 19:56:31.991,
-2.0364,0.7754,0.2817,-71.1212,-250.0,30.5557,2024-02-11 19:56:32.007,0.0
-1.4258,0.3208,0.5425,-74.4781,-250.0,4.3259,2024-02-11 19:56:32.023,0.0
-1.0654,0.23,0.7112,-60.4935,-250.0,-12.146,2024-02-11 19:56:32.040,0.0
-0.7456,0.0691,0.7131,-50.8957,-250.0,-14.2441,2024-02-11 19:56:32.064,0.0
-0.4932,0.1099,0.8674,-42.4728,-250.0,0.9613,2024-02-11 19:56:32.081,0.0
-0.2468,0.3767,1.1926,-38.4445,-250.0,24.4598,2024-02-11 19:56:32.097,0.0
0.2356,0.6113,1.2119,-41.7709,-250.0,25.6577,2024-02-11 19:56:32.113,0.0
0.7192,0.5505,1.1807,-37.4756,-157.5623,6.134,2024-02-11 19:56:32.146,0.0
0.6953,0.2495,1.0664,-34.2484,-57.457,-0.2518,2024-02-11 19:56:32.154,0.0
0.6125,-0.0469,0.9939,-26.619,42.4881,12.4435,2024-02-11 19:56:32.169,0.0
0.864,-0.0586,0.8757,-30.0293,68.3899,11.322,2024-02-11 19:56:32.186,0.0
0.7488,0.1704,0.9817,-26.9623,59.7458,-10.3531,2024-02-11 19:56:32.202,0.0
0.3743,0.2209,0.9058,-17.0898,108.0399,-7.2861,2024-02-11 19:56:32.226,0.0
0.1526,0.0864,0.658,-19.7296,111.7249,-1.8692,2024-02-11 19:56:32.242,0.0
-0.0933,-0.0112,0.4724,-22.4457,77.713,-0.9995,2024-02-11 19:56:32.259,0.0
-0.1819,0.0049,0.4243,-25.1083,36.2167,1.6556,2024-02-11 19:56:32.283,0.0
0.0281,0.0171,0.5972,-17.8299,1.5259,1.2589,2024-02-11 19:56:32.300,0.0
0.2642,0.011,0.7534,7.2098,-0.0916,-1.2131,2024-02-11 19:56:32.316,0.0
0.5325,0.0276,0.7163,20.7748,37.674,-3.5477,2024-02-11 19:56:32.332,0.0
0.4692,0.0898,0.8018,7.4539,65.8875,-3.1815,2024-02-11 19:56:32.365,
0.1328,0.144,0.9456,0.1984,70.0455,-4.2648,2024-02-11 19:56:32.373,0.0
-0.0676,0.1602,1.0374,-1.6327,44.014,-9.6054,2024-02-11 19:56:32.389,0.0
-0.3071,0.1162,1.1458,-3.7613,16.8991,-6.4163,2024-02-11 19:56:32.406,0.0
-0.5339,0.0718,1.3706,-4.921,11.673,0.5112,2024-02-11 19:56:32.430,0.0
-0.6755,0.1272,1.4773,-2.6245,11.3449,6.897,2024-02-11 19:56:32.446,0.0
-0.8396,0.2253,1.5393,-1.0223,-12.6419,13.3591,2024-02-11 19:56:32.462,0.0
-0.6584,0.3801,1.5503,0.5569,-63.0188,16.4948,2024-02-11 19:56:32.479,0.0
-0.4021,0.4058,1.55,0.351,-110.2676,7.1716,2024-02-11 19:56:32.495,0.0
-0.2488,0.4316,1.5291,-1.1139,-120.3995,-0.6332,2024-02-11 19:56:32.511,0.0
-0.02,0.408,1.333,-5.0888,-80.8563,-6.3858,2024-02-11 19:56:32.538,0.0
0.1321,0.3088,1.1226,-10.1395,-39.0778,-9.0103,2024-02-11 19:56:32.554,0.0
0.2087,0.1316,1.0085,-12.764,-4.6616,-16.9449,2024-02-11 19:56:32.570,0.0
0.1345,-0.0093,0.8799,-13.0768,27.0157,-22.0718,2024-02-11 19:56:32.587,0.0
0.0417,-0.0708,0.8093,-13.7634,56.7398,-23.5977,2024-02-11 19:56:32.611,0.0
-0.0679,-0.0247,0.813,-11.9171,67.009,-22.8577,2024-02-11 19:56:32.627,0.0
-0.1904,0.0342,0.8235,-8.0109,60.2798,-18.3716,2024-02-11 19:56:32.646,0.0
-0.2468,0.0693,0.7974,-4.2496,50.499,-13.7939,2024-02-11 19:56:32.662,0.0
-0.2686,0.1008,0.7559,-0.8469,44.1895,-10.0403,2024-02-11 19:56:32.686,0.0
-0.3215,0.0955,0.749,1.1826,42.8162,-5.5389,2024-02-11 19:56:32.705,0.0
-0.377,0.085,0.7781,4.1428,40.6189,-0.5264,2024-02-11 19:56:32.721,
-0.4441,0.0847,0.8298,7.9422,31.2347,5.394,2024-02-11 19:56:32.738,0.0
-0.5161,0.0818,0.8774,9.7427,18.0969,9.8877,2024-02-11 19:56:32.754,0.0
-0.5764,0.1284,0.8972,7.2632,7.0038,12.8708,2024-02-11 19:56:32.771,0.0
-0.6152,0.2107,0.9492,0.679,-2.2125,15.1749,2024-02-11 19:56:32.787,0.0
-0.6079,0.325,0.9873,-9.1476,-11.6348,12.3138,2024-02-11 19:56:32.812,0.0
-0.5942,0.3643,1.0527,-14.6866,-19.1803,5.5084,2024-02-11 19:56:32.836,0.0
-0.5493,0.3625,1.0662,-17.9977,-29.6097,-3.1586,2024-02-11 19:56:32.845,0.0
-0.4746,0.2993,1.0793,-21.9421,-44.3344,-11.8027,2024-02-11 19:56:32.869,0.0
-0.4165,0.2019,1.0964,-22.995,-51.9409,-15.5869,2024-02-11 19:56:32.885,0.0
-0.3594,0.0872,1.0859,-21.8811,-41.069,-15.1825,2024-02-11 19:56:32.909,0.0
-0.3057,0.0137,1.0913,-20.1416,-17.7231,-14.6255,2024-02-11 19:56:32.918,0.0
-0.2886,-0.0273,1.0847,-15.1672,10.91,-13.0997,2024-02-11 19:56:32.934,0.0
-0.2769,-0.0176,1.0466,-10.2234,20.1035,-9.6741,2024-02-11 19:56:32.959,0.0
-0.2712,0.0068,1.0156,-5.5466,15.5945,-6.813,2024-02-11 19:56:32.976,0.0
-0.2583,0.0249,0.97,0.0076,5.4626,-3.4027,2024-02-11 19:56:32.993,0.0
-0.241,0.0469,0.9509,4.2877,-2.3346,-0.267,2024-02-11 19:56:33.018,0.0
-0.2327,0.051,0.929,6.3324,-2.7161,2.655,2024-02-11 19:56:33.034,0.0
-0.2285,0.0679,0.9272,8.0566,2.0523,5.0888,2024-02-11 19:56:33.050,0.0
-0.2524,0.0823,0.9338,7.6447,5.0812,7.0496,2024-02-11 19:56:33.074,0.0
-0.2571,0.1113,0.9426,6.6452,4.1809,7.7057,2024-02-11 19:56:33.090,
-0.2551,0.1406,0.9534,4.509,0.9003,6.134,2024-02-11 19:56:33.106,0.0
-0.2505,0.144,0.9807,1.4267,-4.7226,3.5019,2024-02-11 19:56:33.122,0.0
-0.2456,0.1465,1.0244,-2.1973,-15.4419,0.206,2024-02-11 19:56:33.163,0.0
-0.2468,0.137,1.0583,-5.5542,-22.3541,-2.5864,2024-02-11 19:56:33.171,0.0
-0.2451,0.1262,1.1084,-7.9651,-22.7356,-4.3488,2024-02-11 19:56:33.180,0.0
-0.2488,0.1104,1.134,-9.7198,-16.3879,-5.4932,2024-02-11 19:56:33.196,0.0
-0.2419,0.094,1.126,-10.2158,-5.8289,-5.8975,2024-02-11 19:56:33.228,0.0
-0.261,0.0972,1.1455,-9.1248,6.0501,-6.6757,2024-02-11 19:56:33.236,0.0
-0.282,0.0837,1.136,-7.8964,13.6566,-6.7749,2024-02-11 19:56:33.244,0.0
-0.2859,0.0894,1.0867,-7.8278,16.1438,-5.7297,2024-02-11 19:56:33.276,0.0
-0.2942,0.0835,1.0723,-7.225,16.1591,-3.6621,2024-02-11 19:56:33.292,0.0
-0.3149,0.0752,1.0508,-5.0201,17.7002,-1.7548,2024-02-11 19:56:33.308,0.0
-0.3413,0.0842,1.0356,-1.4191,19.0582,0.9384,2024-02-11 19:56:33.324,0.0
-0.3518,0.0774,1.0024,1.7624,17.6697,2.9907,2024-02-11 19:56:33.340,0.0
-0.3545,0.0762,0.9736,3.4714,16.304,4.1656,2024-02-11 19:56:33.361,0.0
-0.3501,0.0811,0.9348,4.2877,15.274,4.1351,2024-02-11 19:56:33.385,0.0
-0.3269,0.0881,0.926,4.9515,12.3825,3.4714,2024-02-11 19:56:33.401,0.0
-0.3201,0.1067,0.9185,4.921,6.0196,2.5024,2024-02-11 19:56:33.417,0.0
-0.3152,0.1125,0.9092,3.3035,-1.6785,1.4801,2024-02-11 19:56:33.425,0.0
-0.3035,0.1213,0.9077,0.1526,-8.8577,-0.5341,2024-02-11 19:56:33.450,
-0.3076,0.1277,0.9446,-2.8076,-11.8179,-2.3956,2024-02-11 19:56:33.467,0.0
-0.2927,0.1235,0.9639,-5.0278,-12.5275,-4.0665,2024-02-11 19:56:33.491,0.0
-0.2991,0.1196,0.9976,-6.0883,-11.0855,-4.631,2024-02-11 19:56:33.508,0.0
-0.2954,0.1101,1.0449,-6.1417,-9.2163,-4.7302,2024-02-11 19:56:33.524,0.0
-0.2954,0.1072,1.0525,-5.3482,-6.958,-4.4861,2024-02-11 19:56:33.540,0.0
-0.2949,0.1096,1.0859,-4.7989,-4.6234,-3.6316,2024-02-11 19:56:33.556,0.0
-0.2947,0.1057,1.1011,-4.1504,0.4425,-2.0523,2024-02-11 19:56:33.580,0.0
-0.2917,0.1111,1.1223,-2.182,7.2937,-0.6409,2024-02-11 19:56:33.596,0.0
-0.2986,0.1067,1.0718,-0.4654,11.673,0.5722,2024-02-11 19:56:33.613,0.0
-0.304,0.1082,1.0723,0.3357,12.0926,0.9766,2024-02-11 19:56:33.629,0.0
-0.3125,0.1033,1.0398,-0.3662,11.0092,0.5264,2024-02-11 19:56:33.653,0.0
-0.3093,0.1052,1.0076,-1.0452,8.1635,-0.0229,2024-02-11 19:56:33.669,0.0
-0.2852,0.1177,0.9897,-1.1902,5.6686,-0.5951,2024-02-11 19:56:33.685,0.0
-0.2793,0.1116,0.9707,-2.1439,4.5547,-1.2283,2024-02-11 19:56:33.709,0.0
-0.2605,0.1206,0.9617,-3.2959,4.8904,-1.7624,2024-02-11 19:56:33.725,0.0
-0.2563,0.104,0.9768,-3.9825,7.1259,-2.4872,2024-02-11 19:56:33.742,0.0
-0.2773,0.0862,0.991,-3.9062,10.7346,-3.0746,2024-02-11 19:56:33.758,0.0
-0.2944,0.0845,0.9956,-3.6545,11.9019,-3.7537,2024-02-11 19:56:33.783,0.0
-0.3018,0.0862,0.9927,-3.4943,8.9493,-3.6392,2024-02-11 19:56:33.799,0.0
-0.3184,0.0864,0.9944,-3.1281,4.5853,-2.9831,2024-02-11 19:56:33.816,
-0.3228,0.0952,0.9983,-3.5095,2.1744,-2.0142,2024-02-11 19:56:33.832,0.0
-0.3274,0.0933,1.0151,-3.3188,2.6627,-1.2589,2024-02-11 19:56:33.848,0.0
-0.3323,0.0942,1.0271,-2.6779,5.6,-0.4272,2024-02-11 19:56:33.872,0.0
-0.3462,0.0933,1.0364,-2.3956,7.3013,-0.1373,2024-02-11 19:56:33.888,0.0
-0.3606,0.0964,1.0256,-1.6098,7.6904,0.1373,2024-02-11 19:56:33.904,0.0
-0.3616,0.0959,1.0337,-0.9842,7.019,-0.0839,2024-02-11 19:56:33.921,0.0
-0.3491,0.0979,1.0139,-0.5341,6.5079,-0.3738,2024-02-11 19:56:33.937,0.0
-0.3401,0.1013,0.998,-1.0071,6.3095,-0.7401,2024-02-11 19:56:33.962,0.0
-0.3293,0.0979,0.9968,-1.8692,7.8201,-0.7248,2024-02-11 19:56:33.978,0.0
-0.3315,0.0942,1.009,-2.121,10.4218,-1.1139,2024-02-11 19:56:33.994,0.0
-0.3335,0.0989,0.9685,-2.3422,11.1923,-1.6556,2024-02-11 19:56:34.010,0.0
-0.3328,0.0933,0.9783,-2.5787,8.2626,-2.2202,2024-02-11 19:56:34.027,0.0
-0.3308,0.0867,0.9609,-2.4643,3.5782,-2.2659,2024-02-11 19:56:34.051,0.0
-0.3291,0.0715,0.9641,-2.2812,0.1297,-2.6855,2024-02-11 19:56:34.068,0.0
-0.3196,0.0791,0.9741,-1.9684,-0.7782,-2.6703,2024-02-11 19:56:34.084,0.0
-0.3201,0.0798,1.0083,-0.9384,-1.7166,-2.9068,2024-02-11 19:56:34.116,0.0
-0.3215,0.093,1.0129,0.4349,-2.0981,-2.5558,2024-02-11 19:56:34.116,0.0
-0.3191,0.0962,1.0154,0.5951,-0.2975,-2.0905,2024-02-11 19:56:34.140,0.0
-0.3074,0.0991,1.0176,0.3662,2.5558,-1.6785,2024-02-11 19:56:34.156,0.0
-0.3196,0.0964,1.0022,-0.1678,4.9667,-1.1902,2024-02-11 19:56:34.172,
-0.3306,0.1062,1.0022,-1.0757,6.279,-1.0529,2024-02-11 19:56:34.197,0.0
-0.3411,0.1147,0.9888,-1.7395,6.424,-1.1673,2024-02-11 19:56:34.213,0.0
-0.3379,0.1113,0.9998,-1.9455,4.6692,-1.358,2024-02-11 19:56:34.229,0.0
-0.3357,0.1016,0.9956,-2.3804,3.067,-1.6632,2024-02-11 19:56:34.252,0.0
-0.3433,0.0969,0.9934,-2.6932,2.3727,-1.503,2024-02-11 19:56:34.269,0.0
-0.3435,0.0898,0.9895,-2.7847,1.2894,-1.6403,2024-02-11 19:56:34.285,0.0
-0.3474,0.0857,0.978,-2.7161,-0.0381,-1.5945,2024-02-11 19:56:34.301,0.0
-0.3391,0.0854,0.9856,-2.449,-0.145,-1.7242,2024-02-11 19:56:34.317,0.0
-0.3467,0.0874,0.9873,-2.2583,1.1368,-1.4114,2024-02-11 19:56:34.342,0.0
-0.3364,0.0894,0.9919,-1.5945,1.6556,-1.3657,2024-02-11 19:56:34.359,0.0
-0.3311,0.0876,0.9851,-1.6403,0.3052,-1.03,2024-02-11 19:56:34.376,0.0
-0.3423,0.0903,0.9951,-1.442,0.3662,-1.236,2024-02-11 19:56:34.397,0.0
-0.3477,0.0874,0.9946,-1.2054,0.5341,-1.3885,2024-02-11 19:56:34.408,0.0
-0.3481,0.0959,0.9861,-1.2817,0.1373,-1.7548,2024-02-11 19:56:34.433,0.0
-0.3586,0.095,0.9844,-1.3046,-3.0899,-2.0752,2024-02-11 19:56:34.450,0.0
-0.3574,0.0869,0.9897,-1.6861,-7.6141,-2.1286,2024-02-11 19:56:34.467,0.0
-0.3416,0.0894,0.9861,-1.0071,-8.7662,-2.0065,2024-02-11 19:56:34.483,0.0
-0.3306,0.0793,1.0032,-0.5798,-6.9504,-1.7166,2024-02-11 19:56:34.500,0.0
-0.3462,0.0686,1.0354,0.3052,-5.0354,-1.2817,2024-02-11 19:56:34.517,0.0
-0.3428,0.0654,1.0051,1.7319,-9.5825,-0.6256,2024-02-11 19:56:34.543,
-0.3008,0.0664,0.9753,2.5406,-12.1918,0.0534,2024-02-11 19:56:34.559,0.0
-0.2686,0.0715,0.9827,3.1204,-6.7596,0.6256,2024-02-11 19:56:34.575,0.0
-0.2607,0.084,0.9783,3.5934,0.1373,1.2894,2024-02-11 19:56:34.591,0.0
-0.2834,0.0977,0.9819,2.9831,3.1967,1.7471,2024-02-11 19:56:34.608,0.0
-0.3086,0.1089,1.0144,1.3657,2.8458,1.9684,2024-02-11 19:56:34.624,0.0
-0.3088,0.1133,1.0085,-0.6714,4.3106,2.0523,2024-02-11 19:56:34.649,0.0
-0.2986,0.1284,1.0254,-2.243,8.4381,2.0676,2024-02-11 19:56:34.665,0.0
-0.3035,0.1326,1.0378,-3.2501,11.6425,1.6861,2024-02-11 19:56:34.690,0.0
-0.3169,0.1321,1.0139,-4.8294,11.5051,0.8774,2024-02-11 19:56:34.698,0.0
-0.3386,0.1208,1.0239,-6.6223,11.2534,0.5798,2024-02-11 19:56:34.714,0.0
-0.3423,0.116,1.0303,-6.6376,13.7253,0.1373,2024-02-11 19:56:34.738,0.0
-0.3467,0.104,1.0295,-5.867,17.0135,-0.2747,2024-02-11 19:56:34.754,0.0
-0.3508,0.0999,0.9875,-4.7455,15.9378,-0.267,2024-02-11 19:56:34.770,0.0
-0.3342,0.1062,0.9856,-4.0054,11.7416,-0.5417,2024-02-11 19:56:34.794,0.0
-0.3469,0.1033,0.9985,-3.8605,6.3248,-1.2436,2024-02-11 19:56:34.815,0.0
-0.3489,0.104,0.9871,-3.5706,1.0452,-1.3733,2024-02-11 19:56:34.831,0.0
-0.343,0.0989,0.9858,-2.6779,-0.3662,-0.5493,2024-02-11 19:56:34.848,0.0
-0.3342,0.1018,0.9812,-1.976,-0.1068,-0.2213,2024-02-11 19:56:34.864,0.0
-0.3403,0.1008,0.991,-2.0294,2.4872,0.5722,2024-02-11 19:56:34.880,0.0
-0.3428,0.0933,0.9829,-2.243,4.837,0.8621,2024-02-11 19:56:34.904,
-0.3535,0.1018,0.9653,-2.9831,6.1493,1.0071,2024-02-11 19:56:34.920,0.0
-0.3428,0.103,0.9607,-3.2654,6.8817,0.2289,2024-02-11 19:56:34.937,0.0
-0.3496,0.1086,0.9609,-3.2883,5.9357,-0.5493,2024-02-11 19:56:34.953,0.0
-0.3613,0.1033,0.9783,-3.3035,2.6245,-1.6403,2024-02-11 19:56:34.973,0.0
-0.3657,0.1035,0.9912,-3.1967,-0.7172,-1.9302,2024-02-11 19:56:34.989,0.0
-0.3721,0.0999,1.009,-2.8381,-3.067,-2.1591,2024-02-11 19:56:35.005,0.0
-0.3645,0.0937,1.0024,-2.5253,-3.8376,-2.739,2024-02-11 19:56:35.029,0.0
-0.3625,0.0891,1.0054,-1.8616,-3.2196,-2.8152,2024-02-11 19:56:35.045,0.0
-0.3616,0.0864,0.9802,-1.5411,-2.8534,-2.9907,2024-02-11 19:56:35.062,0.0
-0.3647,0.0811,0.9912,-1.3046,-1.4496,-2.6855,2024-02-11 19:56:35.079,0.0
-0.355,0.074,0.989,-0.7019,-0.9003,-2.449,2024-02-11 19:56:35.095,0.0
-0.3594,0.072,0.9929,-0.4196,-2.4109,-2.3804,2024-02-11 19:56:35.119,0.0
-0.3442,0.0708,0.9788,-0.5188,-5.5389,-2.327,2024-02-11 19:56:35.136,0.0
-0.3357,0.0769,0.9998,-0.4272,-9.4223,-2.8229,2024-02-11 19:56:35.152,0.0
-0.3223,0.0747,0.9954,-0.4883,-11.6959,-3.3569,2024-02-11 19:56:35.168,0.0
-0.312,0.0874,0.9995,-0.3128,-9.5825,-3.1052,2024-02-11 19:56:35.192,0.0
-0.3052,0.0903,0.9985,-0.3967,-5.6686,-2.9831,2024-02-11 19:56:35.208,0.0
-0.3093,0.0923,0.9983,-0.4501,-3.0975,-2.5864,2024-02-11 19:56:35.233,0.0
-0.3108,0.0889,1.0032,-1.0071,-1.8005,-2.3956,2024-02-11 19:56:35.241,0.0
-0.3235,0.0886,0.9905,-1.3428,-2.4338,-2.2354,2024-02-11 19:56:35.266,
-0.3252,0.0937,0.9958,-0.946,-4.6463,-1.8158,2024-02-11 19:56:35.282,0.0
-0.3276,0.0903,1.0208,-0.3662,-6.7825,-1.4191,2024-02-11 19:56:35.299,0.0
-0.322,0.0869,1.0166,-0.1831,-6.2408,-1.3885,2024-02-11 19:56:35.317,0.0
-0.3169,0.0918,1.0276,-0.0534,-5.7678,-1.5488,2024-02-11 19:56:35.333,0.0
-0.3093,0.1011,1.0112,0.0076,-5.3711,-1.503,2024-02-11 19:56:35.350,0.0
-0.3047,0.0986,1.0225,0.1602,-5.7526,-1.6632,2024-02-11 19:56:35.366,0.0
-0.3105,0.0974,1.0222,-0.0839,-6.0349,-1.9379,2024-02-11 19:56:35.390,0.0
-0.3079,0.0979,1.0186,-0.5417,-4.4861,-2.1896,2024-02-11 19:56:35.406,0.0
-0.302,0.1013,1.0103,-1.1902,-0.7629,-1.8234,2024-02-11 19:56:35.441,0.0
-0.3047,0.1018,1.0061,-1.4267,1.8997,-1.8463,2024-02-11 19:56:35.441,0.0
-0.3071,0.1038,1.0024,-1.0452,2.1744,-1.5182,2024-02-11 19:56:35.476,0.0
-0.3101,0.1008,0.9932,-1.091,0.4044,-1.3962,2024-02-11 19:56:35.476,0.0
-0.3076,0.1003,0.9973,-1.2817,-1.5182,-1.7624,2024-02-11 19:56:35.492,0.0
-0.3135,0.095,1.0093,-1.4572,-2.6779,-2.0065,2024-02-11 19:56:35.517,0.0
-0.3083,0.0913,1.0178,-1.8463,-2.6093,-2.2507,2024-02-11 19:56:35.533,0.0
-0.3108,0.0974,1.0059,-1.8234,-2.0676,-2.0676,2024-02-11 19:56:35.549,0.0
-0.3015,0.0901,1.01,-2.0142,-2.0676,-1.8005,2024-02-11 19:56:35.573,0.0
-0.3018,0.094,1.0137,-2.1286,-2.3117,-1.915,2024-02-11 19:56:35.590,0.0
-0.3,0.0977,1.0122,-2.4948,-2.7847,-1.976,2024-02-11 19:56:35.607,0.0
-0.2981,0.0901,1.0178,-2.4948,-2.533,-2.1057,2024-02-11 19:56:35.631,
-0.2974,0.0911,1.0256,-2.5024,-1.4496,-2.2964,2024-02-11 19:56:35.642,0.0
-0.2949,0.0901,1.0168,-2.7161,0.3662,-2.4338,2024-02-11 19:56:35.658,0.0
-0.2996,0.0906,1.0229,-2.3499,1.1826,-2.121,2024-02-11 19:56:35.674,0.0
-0.2976,0.0854,1.0271,-2.1286,2.0218,-1.7319,2024-02-11 19:56:35.707,0.0
-0.3035,0.0872,1.0403,-1.6708,3.1204,-1.7471,2024-02-11 19:56:35.723,0.0
-0.311,0.0908,1.0142,-1.3504,0.4578,-2.1515,2024-02-11 19:56:35.739,0.0
-0.3008,0.0874,1.0261,-0.6409,-3.8681,-2.3117,2024-02-11 19:56:35.749,0.0
-0.2952,0.0867,1.0178,-0.8926,-2.2888,-2.0828,2024-02-11 19:56:35.773,0.0
-0.2947,0.0881,1.0161,-0.7782,1.2207,-2.121,2024-02-11 19:56:35.789,0.0
-0.2949,0.0823,1.0193,-0.7858,3.7766,-1.6098,2024-02-11 19:56:35.813,0.0
-0.303,0.0854,1.021,-1.0986,4.4403,-1.358,2024-02-11 19:56:35.821,0.0
-0.302,0.0864,1.0151,-1.3885,3.0746,-1.5182,2024-02-11 19:56:35.845,0.0
-0.2991,0.0903,1.0122,-1.7014,2.2659,-1.4725,2024-02-11 19:56:35.863,0.0
-0.291,0.092,1.0188,-1.8616,2.9831,-1.3351,2024-02-11 19:56:35.895,0.0
-0.2891,0.0808,1.0256,-1.8616,4.0131,-1.091,2024-02-11 19:56:35.895,0.0
-0.2947,0.0847,1.031,-1.6327,4.5776,-1.3809,2024-02-11 19:56:35.919,0.0
-0.2937,0.0842,1.03,-1.6403,5.5237,-1.6327,2024-02-11 19:56:35.944,0.0
-0.2969,0.0889,1.0215,-1.7014,7.9422,-1.358,2024-02-11 19:56:35.968,0.0
-0.3003,0.0959,1.0078,-1.8082,10.6659,-1.0529,2024-02-11 19:56:35.976,0.0
-0.3135,0.0957,1.0132,-1.5411,10.9329,-0.7629,2024-02-11 19:56:35.992,
-0.3237,0.0896,1.011,-1.709,8.4305,-0.6332,2024-02-11 19:56:36.008,0.0
-0.3108,0.0833,1.0081,-1.8311,5.6,-0.9918,2024-02-11 19:56:36.032,0.0
-0.3115,0.0852,1.0071,-2.0752,4.4174,-1.4954,2024-02-11 19:56:36.040,0.0
-0.3154,0.082,1.0046,-2.1973,5.6152,-1.7853,2024-02-11 19:56:36.064,0.0
-0.3074,0.0859,0.9851,-2.5711,6.7825,-2.5101,2024-02-11 19:56:36.080,0.0
-0.322,0.095,0.9849,-3.1662,6.2561,-3.3112,2024-02-11 19:56:36.097,0.0
-0.325,0.0945,0.9875,-3.8223,6.9809,-3.4409,2024-02-11 19:56:36.114,0.0
-0.3164,0.0959,0.9714,-3.9139,8.3084,-3.1281,2024-02-11 19:56:36.138,0.0
-0.3052,0.0889,0.9788,-3.6316,10.1929,-3.0975,2024-02-11 19:56:36.155,0.0
-0.3022,0.0876,0.9673,-3.8681,10.4904,-3.2654,2024-02-11 19:56:36.171,0.0
-0.3184,0.075,0.9946,-3.9444,9.3002,-4.3793,2024-02-11 19:56:36.187,0.0
-0.3152,0.0564,0.9741,-3.273,10.3989,-5.127,2024-02-11 19:56:36.212,0.0
-0.3269,0.0542,1.0061,-0.2441,9.8495,-4.8523,2024-02-11 19:56:36.228,0.0
-0.323,0.032,0.9934,4.0436,10.3607,-3.4332,2024-02-11 19:56:36.244,0.0
-0.3401,0.0266,1.0435,9.3994,11.6501,-1.6174,2024-02-11 19:56:36.260,0.0
-0.3389,0.0222,1.0408,12.0621,15.6555,0.4349,2024-02-11 19:56:36.286,0.0
-0.3572,0.0295,1.0271,14.9384,19.6075,1.442,2024-02-11 19:56:36.293,0.0
-0.3257,0.0437,0.9463,20.7138,31.5399,6.1722,2024-02-11 19:56:36.319,0.0
-0.3062,0.0596,0.8574,19.8135,36.1938,7.4539,2024-02-11 19:56:36.335,0.0
-0.3132,0.0669,0.9814,19.0353,32.3944,7.3471,2024-02-11 19:56:36.360,
-0.3267,0.0596,0.9736,25.1465,36.5982,9.8343,2024-02-11 19:56:36.368,0.0
-0.2717,0.0798,0.8213,28.0457,48.2864,12.97,2024-02-11 19:56:36.393,0.0
-0.2026,0.1523,0.8657,19.722,53.8559,13.8855,2024-02-11 19:56:36.409,0.0
-0.2383,0.2236,1.0168,15.213,51.9943,13.0692,2024-02-11 19:56:36.434,0.0
-0.2124,0.2334,1.0571,16.3727,57.3044,11.2915,2024-02-11 19:56:36.449,0.0
-0.1594,0.2437,1.0327,12.352,70.343,4.5929,2024-02-11 19:56:36.465,0.0
-0.1743,0.2649,1.0583,9.285,81.4972,-1.3809,2024-02-11 19:56:36.490,0.0
-0.2424,0.2727,1.0652,6.5842,91.2933,-4.0894,2024-02-11 19:56:36.499,0.0
-0.3169,0.2637,1.0364,5.1117,104.5761,-9.1095,2024-02-11 19:56:36.523,0.0
-0.3855,0.2654,0.9697,6.8588,119.2703,-10.9253,2024-02-11 19:56:36.532,0.0
-0.4385,0.1975,0.8354,6.1111,131.3019,-14.473,2024-02-11 19:56:36.557,0.0
-0.5144,0.1697,0.7437,1.3199,139.4119,-22.5143,2024-02-11 19:56:36.581,0.0
-0.6611,0.187,0.751,0.3738,146.904,-25.383,2024-02-11 19:56:36.597,0.0
-0.7048,0.1687,0.7012,4.0436,157.5012,-26.5427,2024-02-11 19:56:36.614,0.0
-0.7742,0.1038,0.6487,6.3095,162.7426,-29.7623,2024-02-11 19:56:36.630,0.0
-0.7947,0.0732,0.572,8.3389,164.2914,-30.2048,2024-02-11 19:56:36.647,0.0
-0.8215,0.1099,0.5083,11.2839,163.8107,-25.5737,2024-02-11 19:56:36.664,0.0
-0.8276,0.1379,0.4709,11.9858,153.0609,-22.9034,2024-02-11 19:56:36.680,0.0
-0.9136,0.1604,0.4407,10.3302,141.3956,-17.3874,2024-02-11 19:56:36.705,0.0
-0.8972,0.1628,0.3521,6.4621,139.4196,-11.1771,2024-02-11 19:56:36.722,
-0.8799,0.1758,0.303,-0.1984,137.2223,-10.025,2024-02-11 19:56:36.738,0.0
-0.9329,0.1074,0.3506,-0.3357,125.885,-7.8964,2024-02-11 19:56:36.762,0.0
-0.9539,0.0713,0.3606,5.3635,119.4153,-6.2485,2024-02-11 19:56:36.770,0.0
-0.9048,0.0422,0.2239,9.8724,120.3232,-8.0261,2024-02-11 19:56:36.786,0.0
-0.9077,0.0781,0.1812,12.2299,126.3885,-6.7902,2024-02-11 19:56:36.811,0.0
-0.8906,0.1536,0.1858,12.5809,123.9166,-2.1286,2024-02-11 19:56:36.827,0.0
-0.9429,0.1516,0.1875,13.7863,122.8104,5.1422,2024-02-11 19:56:36.843,0.0
-0.854,0.0188,0.1438,14.0762,123.0545,6.958,2024-02-11 19:56:36.868,0.0
-0.8301,-0.0498,0.0781,15.4724,127.449,1.6403,2024-02-11 19:56:36.886,0.0
-0.8008,0.022,0.0225,18.486,131.3705,-0.9842,2024-02-11 19:56:36.902,0.0
-0.7278,0.1113,0.0166,20.5002,124.3515,-1.2207,2024-02-11 19:56:36.919,0.0
-0.6975,0.1653,-0.0042,21.4081,113.4644,-5.0049,2024-02-11 19:56:36.935,0.0
-0.582,0.1843,-0.0576,20.3323,110.0082,-12.291,2024-02-11 19:56:36.951,0.0
-0.6526,0.2739,-0.104,16.2888,116.0889,-21.5225,2024-02-11 19:56:36.975,0.0
-0.6721,0.3513,-0.1992,6.9809,145.5917,-31.0516,2024-02-11 19:56:36.993,0.0
-0.7107,0.228,-0.1267,1.0223,154.6326,-30.2048,2024-02-11 19:56:37.009,0.0
-0.6357,0.1497,-0.1604,-0.0305,147.2473,-25.3525,2024-02-11 19:56:37.026,0.0
-0.6809,0.0247,-0.1514,5.5084,124.0845,-20.0577,2024-02-11 19:56:37.051,0.0
-0.8357,0.0107,-0.2969,9.1858,132.6218,-12.7945,2024-02-11 19:56:37.067,0.0
-1.1221,-0.0378,-0.2927,10.4752,153.4195,7.5684,2024-02-11 19:56:37.083,
-1.0688,-0.0488,-0.2375,8.8882,182.579,29.6249,2024-02-11 19:56:37.100,0.0
-0.9419,-0.0366,-0.2488,12.8098,176.8951,35.6598,2024-02-11 19:56:37.120,0.0
-0.9236,0.0415,-0.3862,13.1531,125.6256,38.1241,2024-02-11 19:56:37.137,0.0
-0.9519,0.1782,-0.5991,4.1885,93.2236,41.9998,2024-02-11 19:56:37.153,0.0
-0.9055,0.2249,-0.6125,-8.7509,81.0318,38.8794,2024-02-11 19:56:37.169,0.0
-0.7737,0.2273,-0.4888,-17.4561,53.5278,28.5034,2024-02-11 19:56:37.185,0.0
-0.6733,0.2307,-0.5151,-18.3182,14.4348,16.5787,2024-02-11 19:56:37.210,0.0
-0.7297,0.1824,-0.4878,-12.6114,3.0289,6.2103,2024-02-11 19:56:37.227,0.0
-0.8499,0.0894,-0.4368,2.1591,14.9231,-9.1782,2024-02-11 19:56:37.251,0.0
-0.9187,0.177,-0.4541,19.4931,14.3051,-28.0075,2024-02-11 19:56:37.269,0.0
-0.8655,0.2119,-0.7368,20.9122,-0.412,-41.9464,2024-02-11 19:56:37.285,0.0
-0.7112,0.1643,-0.8274,6.4621,-25.6958,-49.3088,2024-02-11 19:56:37.301,0.0
-0.6777,0.1331,-0.7422,0.0381,-32.9819,-60.0204,2024-02-11 19:56:37.317,0.0
-0.6487,0.1221,-0.7,-2.3422,-27.9312,-69.2825,2024-02-11 19:56:37.334,0.0
-0.6223,0.1582,-0.6453,-8.7204,-30.7922,-77.9648,2024-02-11 19:56:37.350,0.0
-0.7207,0.1455,-0.6572,-20.1797,-35.1028,-83.7936,2024-02-11 19:56:37.374,0.0
-0.731,0.0803,-0.5447,-31.2958,-46.3867,-90.95,2024-02-11 19:56:37.391,0.0
-0.7744,-0.0132,-0.4106,-32.8217,-63.8046,-97.435,2024-02-11 19:56:37.409,0.0
-0.9312,-0.0767,-0.3965,-31.6925,-68.3594,-100.0748,2024-02-11 19:56:37.433,0.0
-0.99,-0.084,-0.5286,-42.717,-67.7567,-98.0301,2024-02-11 19:56:37.443,
-0.7817,0.1753,-0.4121,-62.912,-80.0323,-99.1211,2024-02-11 19:56:37.462,0.0
-0.8088,0.2759,-0.2732,-72.8302,-102.417,-101.0437,2024-02-11 19:56:37.478,0.0
-0.7424,0.0603,-0.1802,-68.9087,-104.9194,-101.3641,2024-02-11 19:56:37.502,0.0
-0.6704,-0.1245,-0.2454,-57.4493,-108.4137,-102.7908,2024-02-11 19:56:37.519,0.0
-0.6284,-0.2292,-0.1899,-38.559,-108.1696,-99.2432,2024-02-11 19:56:37.535,0.0
-0.5305,-0.2288,-0.2246,-21.553,-98.0072,-102.15,2024-02-11 19:56:37.561,0.0
-0.5432,-0.2668,-0.2617,-21.3318,-96.55,-107.3074,2024-02-11 19:56:37.569,0.0
-0.5874,-0.1936,-0.0869,-29.5868,-118.6752,-115.9134,2024-02-11 19:56:37.585,0.0
-0.7937,-0.2783,0.0295,-30.7922,-128.5019,-118.66,2024-02-11 19:56:37.609,0.0
-0.8074,-0.4871,-0.1135,-22.1329,-109.23,-111.9843,2024-02-11 19:56:37.625,0.0
-0.7144,-0.6306,-0.1838,-7.8278,-54.2221,-101.2573,2024-02-11 19:56:37.650,0.0
-0.6267,-0.7395,-0.3411,-4.8218,-13.7177,-87.6694,2024-02-11 19:56:37.665,0.0
-0.6006,-0.7837,-0.4216,-9.0637,0.824,-67.9092,2024-02-11 19:56:37.682,0.0
-0.7168,-0.7917,-0.4771,-27.832,29.3579,-40.535,2024-02-11 19:56:37.698,0.0
-0.7566,-0.6882,-0.5693,-45.8221,83.1985,-9.819,2024-02-11 19:56:37.723,0.0
-0.6113,-0.3604,-0.7078,-69.519,122.0093,-5.188,2024-02-11 19:56:37.739,0.0
-0.6235,-0.02,-0.9182,-94.6274,134.2316,-3.7231,2024-02-11 19:56:37.756,0.0
-0.2871,0.0513,-1.0046,-107.193,129.8294,5.1956,2024-02-11 19:56:37.780,0.0
-0.4565,-0.0378,-0.8591,-106.0257,123.1995,17.395,2024-02-11 19:56:37.788,0.0
-0.5505,-0.051,-0.8198,-110.1837,117.9276,18.4479,2024-02-11 19:56:37.812,
-0.6677,0.1626,-0.739,-116.2186,114.6164,9.0485,2024-02-11 19:56:37.829,0.0
-0.4949,0.3545,-0.7781,-101.8982,109.4055,-8.2932,2024-02-11 19:56:37.845,0.0
-0.5696,0.3254,-0.6299,-81.7719,73.8525,-24.6048,2024-02-11 19:56:37.861,0.0
-0.7932,0.1296,-0.4397,-60.2951,51.6739,-19.3481,2024-02-11 19:56:37.885,0.0
-0.8381,-0.2158,-0.3674,-43.1747,64.5142,-6.5613,2024-02-11 19:56:37.902,0.0
-0.7913,-0.311,-0.5894,-26.8707,78.7735,3.746,2024-02-11 19:56:37.918,0.0
-0.7053,-0.3096,-0.7532,-17.9062,70.6787,9.4223,2024-02-11 19:56:37.935,0.0
-0.5046,-0.3274,-0.7471,-11.8866,53.9246,16.9983,2024-02-11 19:56:37.959,0.0
-0.6152,-0.2292,-0.6541,-6.8741,41.0919,28.1982,2024-02-11 19:56:37.976,0.0
-0.6196,-0.0762,-0.7231,-5.9052,50.0793,35.6903,2024-02-11 19:56:37.992,0.0
-0.5237,0.0137,-0.7988,-5.7602,53.9551,39.2685,2024-02-11 19:56:38.017,0.0
-0.4419,0.0049,-0.8774,-4.1962,44.899,40.2832,2024-02-11 19:56:38.025,0.0
-0.3933,-0.009,-0.9243,0.1144,21.7438,33.3099,2024-02-11 19:56:38.050,0.0
-0.4387,-0.0154,-0.8462,-0.2518,-7.1869,27.153,2024-02-11 19:56:38.066,0.0
-0.4185,-0.012,-0.7507,-2.7847,-22.6593,22.8577,2024-02-11 19:56:38.082,0.0
-0.4199,0.0298,-0.6516,-7.1411,-23.5672,22.7737,2024-02-11 19:56:38.098,0.0
-0.5034,0.0208,-0.5837,-9.6054,-4.2648,26.1154,2024-02-11 19:56:38.118,0.0
-0.4602,-0.0566,-0.5708,-7.3853,15.3122,28.5416,2024-02-11 19:56:38.133,0.0
-0.4453,-0.1682,-0.5498,-2.7237,21.5836,31.3568,2024-02-11 19:56:38.158,0.0
-0.4856,-0.1902,-0.5471,2.5711,26.4282,32.9437,2024-02-11 19:56:38.183,
-0.5164,-0.175,-0.6077,8.0414,35.7742,36.5829,2024-02-11 19:56:38.200,0.0
-0.5564,-0.176,-0.6641,12.6495,45.2118,40.5731,2024-02-11 19:56:38.216,0.0
-0.5737,-0.1931,-0.7007,16.7923,48.9883,43.7469,2024-02-11 19:56:38.225,0.0
-0.5732,-0.1458,-0.7256,20.5917,42.572,46.9437,2024-02-11 19:56:38.242,0.0
-0.5735,-0.1013,-0.731,22.4609,29.2664,48.5077,2024-02-11 19:56:38.258,0.0
-0.5857,-0.0862,-0.7131,25.0626,18.2953,50.3235,2024-02-11 19:56:38.275,0.0
-0.5242,-0.0686,-0.7156,27.9007,5.5161,52.6505,2024-02-11 19:56:38.299,0.0
-0.4619,-0.0574,-0.6936,28.8467,-3.7994,53.9246,2024-02-11 19:56:38.316,0.0
-0.4717,-0.0898,-0.6794,30.1132,-9.5291,54.7867,2024-02-11 19:56:38.332,0.0
-0.4534,-0.105,-0.6421,31.1356,-14.4272,55.9921,2024-02-11 19:56:38.348,0.0
-0.4678,-0.1199,-0.6472,30.2811,-1.77,56.4194,2024-02-11 19:56:38.372,0.0
-0.48,-0.1067,-0.6587,27.4734,5.6076,59.4177,2024-02-11 19:56:38.389,0.0
-0.436,-0.0425,-0.6863,21.9955,8.0109,61.1725,2024-02-11 19:56:38.405,0.0
-0.4141,0.009,-0.6201,19.6152,-0.4959,60.3256,2024-02-11 19:56:38.429,0.0
-0.4041,0.0066,-0.6169,21.7209,-12.7792,59.4101,2024-02-11 19:56:38.437,0.0
-0.3779,-0.033,-0.5303,25.7874,-22.4762,56.6406,2024-02-11 19:56:38.461,0.0
-0.3774,-0.1277,-0.5117,32.2342,-28.5339,55.1453,2024-02-11 19:56:38.475,0.0
-0.3713,-0.1663,-0.47,40.5884,-25.6805,51.8951,2024-02-11 19:56:38.515,0.0
-0.3599,-0.1365,-0.4797,46.8063,-22.1329,48.2788,2024-02-11 19:56:38.523,0.0
-0.303,-0.0823,-0.5718,47.0428,-14.7858,48.0042,2024-02-11 19:56:38.540,
-0.2715,-0.0127,-0.5581,42.6788,-11.7493,47.1954,2024-02-11 19:56:38.556,0.0
-0.2849,0.0493,-0.4805,38.9023,-23.819,46.3486,2024-02-11 19:56:38.564,0.0
-0.2988,0.0637,-0.4441,36.9873,-32.9895,46.7377,2024-02-11 19:56:38.589,0.0
-0.2852,0.0369,-0.4365,35.1791,-30.7312,45.1584,2024-02-11 19:56:38.606,0.0
-0.2844,0.0044,-0.4702,33.783,-18.1274,43.7088,2024-02-11 19:56:38.622,0.0
-0.272,-0.0293,-0.5449,30.0751,1.2817,44.2505,2024-02-11 19:56:38.638,0.0
-0.3433,-0.0522,-0.5635,25.0092,24.5895,46.1121,2024-02-11 19:56:38.663,0.0
-0.3955,-0.0508,-0.5623,21.965,42.3431,46.875,2024-02-11 19:56:38.679,0.0
-0.4539,-0.0464,-0.6064,24.9863,64.949,45.3033,2024-02-11 19:56:38.695,0.0
-0.4934,-0.0439,-0.6875,22.3236,66.8335,45.0668,2024-02-11 19:56:38.720,0.0
-0.4451,-0.0559,-0.7822,18.9438,42.5034,43.8614,2024-02-11 19:56:38.728,0.0
-0.4443,-0.0149,-0.7595,17.3035,19.4473,42.6102,2024-02-11 19:56:38.752,0.0
-0.4023,0.0132,-0.7769,17.4789,-3.4103,40.9622,2024-02-11 19:56:38.771,0.0
-0.4072,0.0554,-0.7097,16.4871,-6.8665,36.3235,2024-02-11 19:56:38.788,0.0
-0.4807,0.0964,-0.6423,15.8081,-0.9384,32.7606,2024-02-11 19:56:38.805,0.0
-0.5591,0.1218,-0.6809,11.7874,4.6616,30.4794,2024-02-11 19:56:38.821,0.0
-0.4578,0.0952,-0.7234,9.1629,5.9509,26.3824,2024-02-11 19:56:38.845,0.0
-0.4165,0.0605,-0.7373,8.3084,1.7014,23.8342,2024-02-11 19:56:38.861,0.0
-0.4304,0.022,-0.6985,6.5002,-8.0338,21.492,2024-02-11 19:56:38.877,0.0
-0.396,0.0142,-0.6636,5.3406,-12.4054,18.013,2024-02-11 19:56:38.893,
-0.4106,0.0164,-0.6411,5.5618,-4.8523,13.2446,2024-02-11 19:56:38.951,0.0
-0.4768,0.0369,-0.5454,8.5526,10.8871,11.3602,2024-02-11 19:56:38.951,0.0
-0.4832,0.0068,-0.6494,10.1242,28.2669,13.1531,2024-02-11 19:56:38.951,0.0
-0.4426,-0.0083,-0.7266,8.1253,41.153,14.4119,2024-02-11 19:56:38.969,0.0
-0.4258,-0.0344,-0.7209,5.9052,39.8331,13.3209,2024-02-11 19:56:38.991,0.0
-0.4412,-0.0403,-0.6929,6.6528,28.8162,12.9929,2024-02-11 19:56:38.999,0.0
-0.4651,-0.0176,-0.7078,7.9727,22.1558,14.946,2024-02-11 19:56:39.023,0.0
-0.4314,-0.0042,-0.7212,7.9727,26.3596,15.9531,2024-02-11 19:56:39.039,0.0
-0.3928,0.0195,-0.7488,7.2021,30.304,13.4735,2024-02-11 19:56:39.096,0.0
-0.363,0.0481,-0.7751,6.6299,31.5857,9.7351,2024-02-11 19:56:39.096,0.0
-0.3333,0.0764,-0.7778,6.9427,29.5029,4.715,2024-02-11 19:56:39.096,0.0
-0.3191,0.1082,-0.7693,6.4697,25.8255,0.3738,2024-02-11 19:56:39.105,0.0
-0.3262,0.1169,-0.7871,4.6387,23.1705,-4.3106,2024-02-11 19:56:39.129,0.0
-0.3333,0.0999,-0.7878,1.6479,24.4064,-7.6904,2024-02-11 19:56:39.145,0.0
-0.3372,0.0916,-0.7664,-1.3733,27.7481,-9.1705,2024-02-11 19:56:39.161,0.0
-0.3667,0.0908,-0.7493,-2.1591,29.3274,-9.552,2024-02-11 19:56:39.236,0.0
-0.3923,0.0781,-0.7476,-2.6398,28.9001,-8.7204,2024-02-11 19:56:39.236,0.0
-0.3738,0.074,-0.7681,-3.7231,26.3977,-8.4763,2024-02-11 19:56:39.236,0.0
-0.3269,0.0569,-0.792,-3.4866,24.0021,-9.7046,2024-02-11 19:56:39.244,0.0
-0.3047,0.0356,-0.8054,-2.2659,22.2702,-11.467,2024-02-11 19:56:39.261,
-0.333,0.0159,-0.8054,-0.5798,21.492,-12.3978,2024-02-11 19:56:39.285,0.0
-0.3582,0.0071,-0.7996,0.2213,21.4996,-12.9013,2024-02-11 19:56:39.293,0.0
-0.3623,0.0,-0.8367,-0.4196,18.0206,-13.382,2024-02-11 19:56:39.301,0.0
-0.3232,0.022,-0.8818,-2.121,8.2397,-14.2822,2024-02-11 19:56:39.326,0.0
-0.311,0.0483,-0.865,-4.2114,-5.127,-16.0522,2024-02-11 19:56:39.335,0.0
-0.321,0.0601,-0.8455,-6.7444,-17.4866,-16.7389,2024-02-11 19:56:39.359,0.0
-0.3254,0.0649,-0.7927,-9.8267,-20.5002,-16.7084,2024-02-11 19:56:39.384,0.0
-0.3108,0.0559,-0.7739,-12.0087,-13.8168,-17.0593,2024-02-11 19:56:39.442,0.0
-0.3335,0.0442,-0.717,-12.5961,-5.4169,-17.1738,2024-02-11 19:56:39.442,0.0
-0.3225,0.0369,-0.7466,-13.0081,2.1591,-16.9678,2024-02-11 19:56:39.442,0.0
-0.3308,0.0203,-0.7585,-13.1836,10.6125,-17.0135,2024-02-11 19:56:39.450,0.0
-0.3232,-0.0107,-0.7539,-12.1613,18.074,-16.51,2024-02-11 19:56:39.475,0.0
-0.3391,-0.031,-0.7781,-10.5667,21.3089,-15.8081,2024-02-11 19:56:39.492,0.0
-0.3528,-0.0513,-0.8008,-8.1787,18.7225,-13.8626,2024-02-11 19:56:39.510,0.0
-0.3599,-0.0574,-0.8184,-6.0043,11.6501,-11.9324,2024-02-11 19:56:39.526,0.0
-0.3691,-0.0601,-0.8083,-4.1962,3.2959,-9.552,2024-02-11 19:56:39.542,0.0
-0.3442,-0.0417,-0.802,-2.9526,-2.9678,-7.4234,2024-02-11 19:56:39.559,0.0
-0.3396,-0.0247,-0.7822,-2.1973,-3.479,-5.8136,2024-02-11 19:56:39.576,0.0
-0.3271,-0.0049,-0.7808,-1.0452,-0.3128,-3.9749,2024-02-11 19:56:39.601,0.0
-0.3093,0.0054,-0.7908,-0.473,3.7537,-3.2654,2024-02-11 19:56:39.618,
-0.312,0.019,-0.7986,-0.4807,7.6447,-2.6398,2024-02-11 19:56:39.651,0.0
-0.3181,0.0242,-0.811,-0.824,8.8272,-2.0599,2024-02-11 19:56:39.659,0.0
-0.3154,0.0286,-0.8071,-1.1597,7.4539,-2.0981,2024-02-11 19:56:39.667,0.0
-0.3303,0.0308,-0.8079,-1.8463,4.921,-1.8921,2024-02-11 19:56:39.729,0.0
-0.3269,0.0347,-0.8169,-2.8152,1.5182,-1.1368,2024-02-11 19:56:39.729,0.0
-0.322,0.0234,-0.7986,-3.5324,0.5646,-0.4501,2024-02-11 19:56:39.729,0.0
-0.3093,0.0198,-0.7925,-4.1199,1.442,-0.3738,2024-02-11 19:56:39.743,0.0
-0.3005,0.0164,-0.7878,-4.4098,4.4785,-0.8774,2024-02-11 19:56:39.759,0.0
-0.2976,0.0229,-0.7778,-3.952,6.5231,-1.6022,2024-02-11 19:56:39.775,0.0
-0.2939,0.0232,-0.7874,-3.479,9.6207,-2.3346,2024-02-11 19:56:39.792,0.0
-0.2971,0.0293,-0.7876,-3.0746,12.7182,-3.418,2024-02-11 19:56:39.817,0.0
-0.3013,0.0381,-0.8105,-2.5635,12.7945,-3.7308,2024-02-11 19:56:39.839,0.0
-0.3062,0.0486,-0.8196,-2.3651,10.2386,-4.3182,2024-02-11 19:56:39.888,0.0
-0.3071,0.0552,-0.8206,-3.3798,5.867,-4.4327,2024-02-11 19:56:39.888,0.0
-0.3025,0.0515,-0.8191,-4.2419,2.9602,-4.4556,2024-02-11 19:56:39.896,0.0
-0.2957,0.0464,-0.8088,-4.8599,1.7242,-4.509,2024-02-11 19:56:39.900,0.0
-0.2913,0.0315,-0.8105,-5.0507,2.4872,-4.5624,2024-02-11 19:56:39.924,0.0
