acceleration_x,acceleration_y,acceleration_z,gyroscope_x,gyroscope_y,gyroscope_z,timestamp,label
-13400,-448,-280,-1220,-79,-542,2024-01-24 10:56:27,0.0
-13636,-268,528,-921,564,-416,2024-01-24 10:56:27,0.0
-13924,-376,752,-711,379,-429,2024-01-24 10:56:27,0.0
-13812,-332,516,-646,125,-423,2024-01-24 10:56:27,0.0
-13532,-648,744,-496,-202,-473,2024-01-24 10:56:27,0.0
-13660,-752,464,-549,-271,-484,2024-01-24 10:56:27,0.0
-13972,-656,356,-459,-267,-394,2024-01-24 10:56:27,0.0
-13868,-624,600,-381,-315,-329,2024-01-24 10:56:27,0.0
-13920,-504,420,-315,-215,-154,2024-01-24 10:56:27,0.0
-13320,-444,192,-185,62,-58,2024-01-24 10:56:27,0.0
-13696,-612,80,2,-167,-46,2024-01-24 10:56:27,0.0
-13920,120,-80,188,-126,159,2024-01-24 10:56:27,0.0
-13492,-668,900,510,-45,-65,2024-01-24 10:56:27,0.0
-13640,-552,-120,406,120,-128,2024-01-24 10:56:27,0.0
-13576,-316,-180,431,277,-220,2024-01-24 10:56:27,0.0
-13932,-584,432,392,365,-281,2024-01-24 10:56:27,0.0
-14428,28,-36,239,237,-215,2024-01-24 10:56:27,0.0
-13780,-268,-104,200,-173,-309,2024-01-24 10:56:27,0.0
-13620,-80,-80,50,-228,-334,2024-01-24 10:56:27,0.0
-13568,-404,200,-6,-216,-438,2024-01-24 10:56:27,0.0
-14080,-560,44,-129,-401,-455,2024-01-24 10:56:27,0.0
-14624,-408,-244,-348,-452,-291,2024-01-24 10:56:27,0.0
-14056,72,4,-501,-367,-172,2024-01-24 10:56:27,0.0
-13356,-72,32,-467,-426,-193,2024-01-24 10:56:27,0.0
-13388,-192,140,-465,-90,-168,2024-01-24 10:56:27,0.0
-13212,-488,312,-461,-35,-290,2024-01-24 10:56:27,0.0
-13172,-752,652,-351,-86,-398,2024-01-24 10:56:27,0.0
-13896,-552,332,-315,117,-384,2024-01-24 10:56:27,0.0
-13800,-736,408,-314,79,-335,2024-01-24 10:56:27,0.0
-13800,-708,548,-310,97,-249,2024-01-24 10:56:27,0.0
-13992,-396,256,-319,302,-117,2024-01-24 10:56:27,0.0
-13896,-332,280,-354,367,-51,2024-01-24 10:56:27,0.0
-13644,-284,308,-339,399,5,2024-01-24 10:56:27,0.0
-13544,-552,432,-302,384,-17,2024-01-24 10:56:27,0.0
-13612,-548,444,-230,403,12,2024-01-24 10:56:27,0.0
-13764,-504,484,-147,400,-43,2024-01-24 10:56:27,0.0
-13764,-572,532,-39,450,-13,2024-01-24 10:56:27,0.0
-13868,-624,532,76,391,-25,2024-01-24 10:56:27,0.0
-13904,-644,404,209,403,-21,2024-01-24 10:56:27,0.0
-13776,-556,492,307,394,-35,2024-01-24 10:56:27,0.0
-13872,-368,276,357,453,-43,2024-01-24 10:56:27,0.0
-13848,-180,220,430,365,-72,2024-01-24 10:56:27,0.0
-13828,-284,208,384,356,-82,2024-01-24 10:56:27,0.0
-13972,-268,164,261,266,-80,2024-01-24 10:56:27,0.0
-13764,-152,284,172,278,-8,2024-01-24 10:56:28,0.0
-13752,-84,208,124,426,43,2024-01-24 10:56:28,0.0
-14012,-100,348,151,555,114,2024-01-24 10:56:28,0.0
-14112,-12,512,156,467,148,2024-01-24 10:56:28,0.0
-14088,-208,320,129,229,171,2024-01-24 10:56:28,0.0
-13780,-252,248,190,-84,101,2024-01-24 10:56:28,0.0
-13656,-96,472,196,-171,90,2024-01-24 10:56:28,0.0
-13836,-216,568,138,-11,114,2024-01-24 10:56:28,0.0
-13920,-224,476,110,10,131,2024-01-24 10:56:28,0.0
-13860,-364,496,50,-100,86,2024-01-24 10:56:28,0.0
-13556,-464,428,58,-53,3,2024-01-24 10:56:28,0.0
-13616,-316,588,75,200,-38,2024-01-24 10:56:28,0.0
-13752,-340,528,69,475,-47,2024-01-24 10:56:28,0.0
-13688,-220,528,70,530,-54,2024-01-24 10:56:28,0.0
-13624,-208,424,23,507,-78,2024-01-24 10:56:28,0.0
-13748,-312,464,-54,422,-105,2024-01-24 10:56:28,0.0
-13580,-308,348,-64,379,-161,2024-01-24 10:56:28,0.0
-13708,-396,276,-137,538,-190,2024-01-24 10:56:28,0.0
-13792,-264,268,-180,545,-193,2024-01-24 10:56:28,0.0
-13808,-348,372,-124,429,-226,2024-01-24 10:56:28,0.0
-13876,-416,392,-126,466,-261,2024-01-24 10:56:28,0.0
-13888,-344,496,-71,411,-217,2024-01-24 10:56:28,0.0
-13904,-484,424,-36,322,-230,2024-01-24 10:56:28,0.0
-13768,-416,212,-73,313,-217,2024-01-24 10:56:28,0.0
-13544,-416,224,-65,231,-294,2024-01-24 10:56:28,0.0
-14124,-428,320,-67,470,-199,2024-01-24 10:56:28,0.0
-13764,-288,308,9,236,-302,2024-01-24 10:56:28,0.0
-13740,-204,428,-11,235,-241,2024-01-24 10:56:28,0.0
-13860,-296,332,-34,315,-256,2024-01-24 10:56:28,0.0
-13852,-208,268,-42,316,-284,2024-01-24 10:56:28,0.0
-13660,-336,220,-99,310,-294,2024-01-24 10:56:28,0.0
-13704,-228,236,-134,396,-323,2024-01-24 10:56:28,0.0
-13752,-200,140,-163,455,-300,2024-01-24 10:56:28,0.0
-13824,-196,180,-210,488,-308,2024-01-24 10:56:28,0.0
-13960,-344,236,-183,481,-234,2024-01-24 10:56:28,0.0
-13792,-372,128,-225,411,-267,2024-01-24 10:56:28,0.0
-13812,-356,324,-182,351,-244,2024-01-24 10:56:28,0.0
-13944,-412,96,-191,332,-263,2024-01-24 10:56:28,0.0
-13784,-332,12,-180,395,-209,2024-01-24 10:56:28,0.0
-13716,-396,76,-234,318,-204,2024-01-24 10:56:28,0.0
-13640,-260,188,-210,303,-225,2024-01-24 10:56:28,0.0
-13796,-268,108,-203,332,-259,2024-01-24 10:56:28,0.0
-13784,-372,152,-171,406,-262,2024-01-24 10:56:28,0.0
-13764,-328,160,-198,474,-255,2024-01-24 10:56:28,0.0
-13832,-372,248,-202,460,-230,2024-01-24 10:56:28,0.0
-13844,-440,0,-271,441,-235,2024-01-24 10:56:28,0.0
-13832,-512,96,-209,504,-224,2024-01-24 10:56:28,0.0
-13852,-404,32,-251,547,-182,2024-01-24 10:56:28,0.0
-13888,-328,-160,-290,500,-163,2024-01-24 10:56:28,0.0
-13720,-284,-196,-288,319,-126,2024-01-24 10:56:28,0.0
-13736,-252,-8,-280,206,-135,2024-01-24 10:56:28,0.0
-13604,-216,-68,-268,327,-141,2024-01-24 10:56:28,0.0
-13704,-472,-148,-269,401,-172,2024-01-24 10:56:28,0.0
-13716,-348,-4,-260,355,-209,2024-01-24 10:56:28,0.0
-13744,-340,-100,-237,326,-233,2024-01-24 10:56:28,0.0
-13496,-380,-76,-213,398,-290,2024-01-24 10:56:28,
-13428,-344,-84,-198,537,-305,2024-01-24 10:56:28,0.0
-13704,-364,-52,-198,622,-312,2024-01-24 10:56:28,0.0
-13616,-344,-160,-220,690,-313,2024-01-24 10:56:29,0.0
-13712,-420,-56,-249,824,-266,2024-01-24 10:56:29,0.0
-13712,-248,44,-273,873,-256,2024-01-24 10:56:29,0.0
-13960,-324,-104,-289,829,-243,2024-01-24 10:56:29,0.0
-13880,-328,-168,-388,690,-236,2024-01-24 10:56:29,0.0
-13908,-320,-204,-400,543,-263,2024-01-24 10:56:29,0.0
-13952,-324,-244,-471,449,-254,2024-01-24 10:56:29,0.0
-13908,-276,-360,-482,427,-199,2024-01-24 10:56:29,0.0
-14032,-428,-276,-499,358,-175,2024-01-24 10:56:29,0.0
-13900,-432,-352,-503,270,-100,2024-01-24 10:56:29,0.0
-13784,-400,-356,-426,183,-101,2024-01-24 10:56:29,0.0
-13688,-284,-172,-432,228,-68,2024-01-24 10:56:29,0.0
-13784,-392,-316,-373,296,-88,2024-01-24 10:56:29,0.0
-13744,-436,-108,-394,268,-70,2024-01-24 10:56:29,0.0
-13716,-432,-168,-359,229,-66,2024-01-24 10:56:29,0.0
-13672,-420,-196,-369,210,-98,2024-01-24 10:56:29,0.0
-13680,-228,-228,-344,231,-85,2024-01-24 10:56:29,0.0
-13728,-360,8,-399,251,-61,2024-01-24 10:56:29,0.0
-13640,-316,-52,-381,246,-82,2024-01-24 10:56:29,0.0
-13728,-420,-156,-367,189,-108,2024-01-24 10:56:29,0.0
-13696,-496,-132,-401,153,-125,2024-01-24 10:56:29,0.0
-13652,-328,-288,-384,214,-168,2024-01-24 10:56:29,0.0
-13652,-332,-272,-390,185,-205,2024-01-24 10:56:29,0.0
-13680,-388,-272,-346,191,-221,2024-01-24 10:56:29,0.0
-13636,-340,-356,-369,234,-253,2024-01-24 10:56:29,0.0
-13656,-436,-340,-350,227,-248,2024-01-24 10:56:29,0.0
-13824,-488,-144,-324,268,-265,2024-01-24 10:56:29,0.0
-13688,-720,-132,-220,255,-272,2024-01-24 10:56:29,0.0
-13624,-608,-212,-186,316,-234,2024-01-24 10:56:29,0.0
-13820,-424,-376,-138,359,-206,2024-01-24 10:56:29,0.0
-13952,-356,-268,-108,279,-150,2024-01-24 10:56:29,0.0
-13660,-268,-484,-87,228,-145,2024-01-24 10:56:29,0.0
-13648,-248,-480,-22,236,-152,2024-01-24 10:56:29,0.0
-13612,-232,-284,-10,268,-123,2024-01-24 10:56:29,0.0
-13568,-300,-340,62,309,-205,2024-01-24 10:56:29,0.0
-13632,-344,-228,73,270,-227,2024-01-24 10:56:29,0.0
-13824,-328,-160,74,135,-323,2024-01-24 10:56:29,0.0
-13780,-328,-116,88,29,-351,2024-01-24 10:56:29,0.0
-13724,-220,-72,99,50,-357,2024-01-24 10:56:29,0.0
-13728,-284,-92,31,115,-321,2024-01-24 10:56:29,0.0
-13672,-304,-244,-21,230,-302,2024-01-24 10:56:29,0.0
-13912,-228,-356,-58,300,-268,2024-01-24 10:56:29,0.0
-13888,-240,-372,-89,291,-206,2024-01-24 10:56:29,0.0
-13988,-320,-220,-105,275,-189,2024-01-24 10:56:29,0.0
-13872,-424,-244,-35,191,-174,2024-01-24 10:56:29,0.0
-13880,-480,-316,-7,72,-176,2024-01-24 10:56:29,0.0
-13936,-496,4,75,51,-185,2024-01-24 10:56:29,0.0
-13808,-468,-176,77,45,-208,2024-01-24 10:56:29,0.0
-13744,-264,-276,60,-16,-238,2024-01-24 10:56:29,0.0
-13684,-332,-176,41,-31,-256,2024-01-24 10:56:29,0.0
-13728,-216,-240,-1,5,-254,2024-01-24 10:56:29,0.0
-13684,-248,-220,-87,62,-239,2024-01-24 10:56:29,0.0
-13784,-300,-148,-130,148,-215,2024-01-24 10:56:29,0.0
-13820,-352,-120,-216,155,-185,2024-01-24 10:56:29,0.0
-13892,-312,-128,-258,125,-176,2024-01-24 10:56:29,0.0
-13732,-408,-76,-215,97,-165,2024-01-24 10:56:29,0.0
-13708,-408,-120,-237,76,-181,2024-01-24 10:56:29,0.0
-13688,-308,-192,-231,103,-181,2024-01-24 10:56:29,0.0
-13772,-380,-96,-252,71,-208,2024-01-24 10:56:29,0.0
-13696,-424,-316,-219,117,-227,2024-01-24 10:56:30,0.0
-13688,-380,-120,-241,134,-247,2024-01-24 10:56:30,0.0
-13696,-372,-196,-275,164,-237,2024-01-24 10:56:30,0.0
-13712,-300,-136,-324,191,-211,2024-01-24 10:56:30,0.0
-13852,-324,-8,-371,173,-215,2024-01-24 10:56:30,0.0
-13776,-464,-244,-357,168,-171,2024-01-24 10:56:30,0.0
-13776,-440,-144,-425,142,-154,2024-01-24 10:56:30,0.0
-13732,-604,-232,-393,201,-140,2024-01-24 10:56:30,0.0
-13772,-468,-208,-425,362,-198,2024-01-24 10:56:30,0.0
-13940,-280,-180,-388,371,-171,2024-01-24 10:56:30,0.0
-14240,-344,-148,-343,229,-179,2024-01-24 10:56:30,0.0
-13728,-316,-100,-241,-69,-206,2024-01-24 10:56:30,0.0
-13728,-336,-244,-228,85,-207,2024-01-24 10:56:30,0.0
-13812,-540,-332,-158,114,-238,2024-01-24 10:56:30,0.0
-13836,-588,-16,-147,13,-242,2024-01-24 10:56:30,0.0
-13708,-680,-176,-161,-55,-260,2024-01-24 10:56:30,0.0
-13692,-520,-176,-167,-19,-194,2024-01-24 10:56:30,0.0
-13736,-408,-244,-165,84,-194,2024-01-24 10:56:30,0.0
-13752,-444,-268,-201,196,-224,2024-01-24 10:56:30,0.0
-13796,-504,-300,-238,145,-224,2024-01-24 10:56:30,0.0
-13880,-488,-400,-217,-28,-211,2024-01-24 10:56:30,0.0
-13756,-528,-280,-209,-87,-221,2024-01-24 10:56:30,0.0
-13680,-588,-164,-233,-12,-206,2024-01-24 10:56:30,0.0
-13692,-552,-416,-211,55,-177,2024-01-24 10:56:30,0.0
-13792,-408,-148,-212,69,-175,2024-01-24 10:56:30,0.0
-13740,-352,-228,-197,48,-175,2024-01-24 10:56:30,0.0
-13608,-596,-416,-189,40,-211,2024-01-24 10:56:30,0.0
-13580,-380,-336,-267,44,-228,2024-01-24 10:56:30,0.0
-13796,-368,-476,-255,107,-268,2024-01-24 10:56:30,0.0
-13796,-392,-544,-346,38,-283,2024-01-24 10:56:30,0.0
-13824,-408,-552,-414,49,-290,2024-01-24 10:56:30,0.0
-13896,-304,-560,-428,-41,-252,2024-01-24 10:56:30,0.0
-13972,-416,-468,-424,-34,-278,2024-01-24 10:56:30,0.0
-13876,-520,-516,-372,-104,-272,2024-01-24 10:56:30,0.0
-13876,-488,-684,-361,-148,-258,2024-01-24 10:56:30,0.0
-13940,-408,-668,-344,-173,-304,2024-01-24 10:56:30,0.0
-13992,-468,-888,-296,-182,-376,2024-01-24 10:56:30,0.0
-13920,-288,-816,-249,-213,-416,2024-01-24 10:56:30,0.0
-13784,-400,-972,-244,-189,-481,2024-01-24 10:56:30,
-13784,-424,-960,-312,-162,-523,2024-01-24 10:56:30,0.0
-13776,-428,-1200,-324,-192,-544,2024-01-24 10:56:30,0.0
-13444,-628,-1336,-293,-19,-573,2024-01-24 10:56:30,0.0
-13460,-672,-1416,-230,107,-689,2024-01-24 10:56:30,0.0
-13788,-444,-1584,-273,45,-764,2024-01-24 10:56:30,0.0
-13816,-108,-1556,-455,-155,-454,2024-01-24 10:56:30,0.0
-13848,424,-1708,-806,101,-496,2024-01-24 10:56:30,0.0
-14188,188,-1900,-1231,178,-575,2024-01-24 10:56:30,0.0
-14048,-344,-2552,-1554,-101,-397,2024-01-24 10:56:30,0.0
-12952,-308,-3136,-1780,300,-448,2024-01-24 10:56:30,0.0
-12512,-460,-3392,-2013,495,-680,2024-01-24 10:56:30,0.0
-11564,280,-3676,-1974,-18,-689,2024-01-24 10:56:30,0.0
-9812,-348,-2720,-2126,-1465,-547,2024-01-24 10:56:30,0.0
-8112,-2644,-2236,-1405,-838,-367,2024-01-24 10:56:30,0.0
-2808,-2132,-1360,6,2458,-4142,2024-01-24 10:56:30,0.0
-14272,-1808,-2244,2091,1148,-8232,2024-01-24 10:56:30,0.0
-16788,2892,-10480,-39,-7052,-1659,2024-01-24 10:56:30,0.0
-3928,-8480,328,-807,-213,874,2024-01-24 10:56:30,0.0
-8436,1692,-7840,-364,-1825,-962,2024-01-24 10:56:30,0.0
-12252,4364,-4164,-2558,-3095,5343,2024-01-24 10:56:30,0.0
12772,1420,896,-1127,5083,4727,2024-01-24 10:56:31,0.0
-6356,-2848,1396,483,6174,-968,2024-01-24 10:56:31,0.0
-8508,-3620,-352,1711,2395,1147,2024-01-24 10:56:31,0.0
-748,-3896,1780,1927,2217,1189,2024-01-24 10:56:31,0.0
576,-1304,2404,3753,4421,294,2024-01-24 10:56:31,0.0
1172,472,256,4121,5834,1706,2024-01-24 10:56:31,0.0
3828,3856,912,3064,8146,-1911,2024-01-24 10:56:31,0.0
-1864,3244,336,2357,7658,-4191,2024-01-24 10:56:31,0.0
-6304,2248,4236,204,7259,-3752,2024-01-24 10:56:31,0.0
-19272,-3296,-10224,-5862,7255,2564,2024-01-24 10:56:31,0.0
-2348,-940,1796,-6276,1118,4466,2024-01-24 10:56:31,0.0
-19152,-224,-5740,-8137,1632,6515,2024-01-24 10:56:31,0.0
-21996,3324,13188,-6075,-12022,4880,2024-01-24 10:56:31,0.0
-17868,-3244,13412,2345,-14388,-1829,2024-01-24 10:56:31,0.0
-18408,-1436,2984,5269,-15731,-4040,2024-01-24 10:56:31,0.0
-22620,2060,-5080,2209,-19270,-426,2024-01-24 10:56:31,0.0
-30920,1232,3280,-1006,-25843,906,2024-01-24 10:56:31,0.0
-11868,-804,9760,-1735,2253,-786,2024-01-24 10:56:37,0.0
-11920,-1004,9812,-1804,2670,-769,2024-01-24 10:56:37,0.0
-11468,-1420,10160,-2049,2879,-923,2024-01-24 10:56:37,0.0
-11300,-1084,10152,-2044,3348,-956,2024-01-24 10:56:37,0.0
-11176,-1152,9624,-1635,4226,-883,2024-01-24 10:56:37,0.0
-12148,-1076,8980,-1328,4890,-802,2024-01-24 10:56:37,0.0
-13256,-1268,8504,-1141,4334,-562,2024-01-24 10:56:37,0.0
-13284,-1092,8512,-968,3373,-216,2024-01-24 10:56:38,0.0
-12712,-1188,8152,-977,3078,-132,2024-01-24 10:56:38,0.0
-12364,-1048,8344,-747,3263,32,2024-01-24 10:56:38,0.0
-12084,-924,8040,-628,3656,174,2024-01-24 10:56:38,0.0
-12616,-904,7800,-706,3968,285,2024-01-24 10:56:38,0.0
-12912,-952,7420,-839,3709,230,2024-01-24 10:56:38,0.0
-12872,-1352,7364,-948,2993,132,2024-01-24 10:56:38,0.0
-13044,-1392,7720,-776,2021,11,2024-01-24 10:56:38,0.0
-12796,-1568,7904,-623,1391,-71,2024-01-24 10:56:38,0.0
-12620,-1748,7960,-249,949,-204,2024-01-24 10:56:38,0.0
-12628,-1764,7636,-32,1035,-245,2024-01-24 10:56:38,0.0
-12804,-1512,7808,190,1065,-303,2024-01-24 10:56:38,0.0
-13280,-1204,8036,296,959,-399,2024-01-24 10:56:38,0.0
-13120,-876,8068,495,578,-407,2024-01-24 10:56:38,0.0
-12864,-640,7760,607,311,-335,2024-01-24 10:56:38,0.0
-12964,-352,7860,668,309,-148,2024-01-24 10:56:38,0.0
-13048,-388,7856,573,541,1,2024-01-24 10:56:38,0.0
-13396,-332,7452,450,578,240,2024-01-24 10:56:38,0.0
-13540,-424,7264,270,341,339,2024-01-24 10:56:38,0.0
-13568,-620,7116,115,167,228,2024-01-24 10:56:38,0.0
-13260,-800,6888,48,128,107,2024-01-24 10:56:38,0.0
-12920,-988,6644,33,308,121,2024-01-24 10:56:38,0.0
-12700,-808,6708,-40,642,25,2024-01-24 10:56:38,0.0
-12516,-872,6912,-43,858,-55,2024-01-24 10:56:38,0.0
-12824,-816,6972,-72,1254,-58,2024-01-24 10:56:38,0.0
-13228,-640,7148,-89,1393,-69,2024-01-24 10:56:38,0.0
-13460,-536,7376,-174,1088,18,2024-01-24 10:56:38,0.0
-13504,-468,7632,-239,476,119,2024-01-24 10:56:38,0.0
-13064,-552,7568,-271,-156,196,2024-01-24 10:56:38,0.0
-12808,-740,7740,-260,-565,220,2024-01-24 10:56:38,0.0
-12656,-880,7856,-196,-803,190,2024-01-24 10:56:38,0.0
-12652,-988,7944,-107,-849,187,2024-01-24 10:56:38,0.0
-12760,-1160,8216,18,-1010,125,2024-01-24 10:56:38,0.0
-12932,-1180,8220,149,-1218,84,2024-01-24 10:56:38,0.0
-12856,-1212,7980,280,-1346,112,2024-01-24 10:56:38,0.0
-12964,-1200,7696,376,-1467,114,2024-01-24 10:56:38,0.0
-12932,-1096,7828,402,-1627,77,2024-01-24 10:56:38,0.0
-12784,-968,7672,509,-1790,74,2024-01-24 10:56:38,0.0
-12804,-852,7724,478,-1904,66,2024-01-24 10:56:38,0.0
-12788,-708,7832,522,-2044,87,2024-01-24 10:56:38,0.0
-12892,-700,7960,471,-2155,142,2024-01-24 10:56:38,0.0
-12780,-568,7932,456,-2285,196,2024-01-24 10:56:38,0.0
-12616,-712,8072,460,-2146,172,2024-01-24 10:56:38,0.0
-12668,-520,8020,482,-1656,181,2024-01-24 10:56:38,0.0
-12688,-368,7956,486,-1473,161,2024-01-24 10:56:38,0.0
-12700,-208,8140,436,-1599,242,2024-01-24 10:56:38,0.0
-12580,-296,8340,369,-1892,305,2024-01-24 10:56:38,0.0
-13032,-184,9040,177,-2052,484,2024-01-24 10:56:38,0.0
-12656,-448,9256,246,-2564,349,2024-01-24 10:56:38,0.0
-12576,-336,9452,272,-2619,448,2024-01-24 10:56:38,0.0
-12172,-216,9064,250,-2647,424,2024-01-24 10:56:38,0.0
-11968,-248,9368,252,-2632,319,2024-01-24 10:56:38,0.0
-11948,-164,9424,314,-2481,304,2024-01-24 10:56:38,0.0
-12136,28,9736,287,-2365,285,2024-01-24 10:56:38,0.0
-12052,148,9408,243,-2231,379,2024-01-24 10:56:38,0.0
-12100,144,9396,62,-2229,360,2024-01-24 10:56:38,
-12100,100,9612,-33,-2271,444,2024-01-24 10:56:38,0.0
-11860,20,9752,-190,-2202,486,2024-01-24 10:56:38,0.0
-11952,-212,9856,-335,-2152,558,2024-01-24 10:56:38,0.0
-11876,-312,9804,-450,-2141,592,2024-01-24 10:56:39,0.0
-12008,-308,9692,-490,-2195,542,2024-01-24 10:56:39,0.0
-11940,-296,9784,-432,-2313,561,2024-01-24 10:56:39,0.0
-11848,-136,9692,-477,-2316,586,2024-01-24 10:56:39,0.0
-11776,-192,9956,-386,-2320,596,2024-01-24 10:56:39,0.0
-11676,-200,10384,-257,-2339,647,2024-01-24 10:56:39,0.0
-11552,-100,10576,-116,-2525,619,2024-01-24 10:56:39,0.0
-11624,-40,10672,94,-2601,592,2024-01-24 10:56:39,0.0
-11476,8,10700,220,-2727,571,2024-01-24 10:56:39,0.0
-11548,232,10740,396,-2663,698,2024-01-24 10:56:39,0.0
-11732,172,10636,300,-2707,940,2024-01-24 10:56:39,0.0
-11632,136,10680,88,-2837,1153,2024-01-24 10:56:39,0.0
-11216,148,10824,-102,-2955,1157,2024-01-24 10:56:39,0.0
-11072,292,10832,-253,-2956,1013,2024-01-24 10:56:39,0.0
-11040,288,11052,-497,-3034,856,2024-01-24 10:56:39,0.0
-10788,292,11372,-800,-3105,785,2024-01-24 10:56:39,0.0
-10236,616,11568,-1116,-3067,771,2024-01-24 10:56:39,0.0
-9768,868,12516,-1478,-3018,711,2024-01-24 10:56:39,0.0
-9000,704,13064,-1802,-2641,564,2024-01-24 10:56:39,0.0
-8912,200,13384,-1955,-1722,287,2024-01-24 10:56:39,0.0
-8964,-236,13240,-1899,-776,9,2024-01-24 10:56:39,0.0
-9140,-572,12812,-1619,63,-330,2024-01-24 10:56:39,0.0
-9456,-736,12392,-1151,657,-568,2024-01-24 10:56:39,0.0
-10032,-524,12076,-602,1116,-748,2024-01-24 10:56:39,0.0
-10588,-208,12188,-187,977,-813,2024-01-24 10:56:39,0.0
-11084,16,12096,134,660,-762,2024-01-24 10:56:39,0.0
-11244,336,11848,323,159,-725,2024-01-24 10:56:39,0.0
-11224,576,11544,315,-315,-637,2024-01-24 10:56:39,0.0
-11108,652,11312,243,-578,-582,2024-01-24 10:56:39,0.0
-10960,692,11252,131,-509,-550,2024-01-24 10:56:39,0.0
-10780,576,10884,-19,-176,-570,2024-01-24 10:56:39,0.0
-10708,228,10636,-143,453,-690,2024-01-24 10:56:39,0.0
-11032,-320,10620,-78,936,-649,2024-01-24 10:56:39,0.0
-11264,-408,10704,-63,1135,-511,2024-01-24 10:56:39,0.0
-11588,-620,10648,-24,1146,-325,2024-01-24 10:56:39,0.0
-11492,-556,10612,-13,753,-186,2024-01-24 10:56:39,0.0
-11056,-496,10708,-75,499,-202,2024-01-24 10:56:39,0.0
-11024,-344,11184,-127,353,-226,2024-01-24 10:56:39,0.0
-11028,-248,11440,-237,330,-216,2024-01-24 10:56:39,0.0
-10976,-200,11680,-243,220,-177,2024-01-24 10:56:39,0.0
-10848,-160,12048,-250,167,-79,2024-01-24 10:56:39,0.0
-10444,4,12160,-230,174,-27,2024-01-24 10:56:39,0.0
-10328,148,12188,-182,303,-63,2024-01-24 10:56:39,0.0
-10408,120,12096,-155,527,-107,2024-01-24 10:56:39,0.0
-10456,268,11880,-134,637,-223,2024-01-24 10:56:39,0.0
-10704,308,11620,-145,680,-210,2024-01-24 10:56:39,0.0
-10796,216,11452,-118,671,-173,2024-01-24 10:56:39,0.0
-10868,292,11144,-129,665,-181,2024-01-24 10:56:39,0.0
-10920,200,11252,-157,683,-157,2024-01-24 10:56:39,0.0
-10920,132,11192,-148,677,-117,2024-01-24 10:56:39,0.0
-10912,172,11172,-178,678,-163,2024-01-24 10:56:39,0.0
-10900,88,11260,-185,645,-205,2024-01-24 10:56:39,0.0
-11016,4,11300,-252,604,-227,2024-01-24 10:56:39,0.0
-11048,12,11492,-251,452,-265,2024-01-24 10:56:39,0.0
-10924,20,11300,-272,401,-242,2024-01-24 10:56:39,0.0
-11004,64,11516,-273,319,-252,2024-01-24 10:56:39,0.0
-10896,-96,11296,-268,260,-228,2024-01-24 10:56:39,0.0
-10764,-132,11444,-229,299,-246,2024-01-24 10:56:39,0.0
-10868,-136,11516,-214,356,-243,2024-01-24 10:56:39,0.0
-10844,-144,11444,-184,400,-251,2024-01-24 10:56:40,0.0
-10804,-80,11520,-183,425,-235,2024-01-24 10:56:40,0.0
-11048,-80,11344,-181,387,-220,2024-01-24 10:56:40,0.0
-11032,72,11064,-180,323,-180,2024-01-24 10:56:40,0.0
-11032,-32,11480,-204,256,-157,2024-01-24 10:56:40,0.0
-10916,28,11368,-167,197,-149,2024-01-24 10:56:40,0.0
-10852,36,11356,-167,188,-162,2024-01-24 10:56:40,0.0
-10984,60,11320,-149,225,-135,2024-01-24 10:56:40,0.0
-10872,60,11300,-99,242,-165,2024-01-24 10:56:40,0.0
-10940,52,11448,-118,283,-156,2024-01-24 10:56:40,0.0
-10880,108,11428,-110,344,-141,2024-01-24 10:56:40,0.0
-10908,64,11532,-137,449,-206,2024-01-24 10:56:40,0.0
-10884,76,11460,-89,626,-183,2024-01-24 10:56:40,0.0
-10760,104,11480,-93,766,-204,2024-01-24 10:56:40,0.0
-10872,4,11392,-90,889,-216,2024-01-24 10:56:40,0.0
-11108,40,11016,-121,882,-234,2024-01-24 10:56:40,0.0
-10972,168,10920,-142,891,-242,2024-01-24 10:56:40,0.0
-11184,108,11124,-257,649,-197,2024-01-24 10:56:40,0.0
-11104,60,10960,-317,245,-177,2024-01-24 10:56:40,0.0
-10928,88,11128,-300,73,-191,2024-01-24 10:56:40,0.0
-11044,148,11224,-325,55,-275,2024-01-24 10:56:40,0.0
-11176,116,11320,-338,50,-299,2024-01-24 10:56:40,0.0
-11124,60,11392,-339,-19,-273,2024-01-24 10:56:40,0.0
-11044,-80,11368,-304,-41,-215,2024-01-24 10:56:40,0.0
-10980,-80,11448,-274,80,-180,2024-01-24 10:56:40,0.0
-10912,-176,11344,-261,181,-163,2024-01-24 10:56:40,0.0
-10964,-36,11268,-265,209,-167,2024-01-24 10:56:40,0.0
-10964,-44,11372,-257,179,-161,2024-01-24 10:56:40,0.0
-10972,-152,11212,-209,192,-94,2024-01-24 10:56:40,0.0
-11016,-216,11256,-179,237,-64,2024-01-24 10:56:40,0.0
-11024,-192,11232,-124,261,-77,2024-01-24 10:56:40,0.0
-10944,-208,11184,-62,298,-109,2024-01-24 10:56:40,0.0
-10992,-164,11308,5,272,-123,2024-01-24 10:56:40,0.0
-11020,-136,11408,35,236,-140,2024-01-24 10:56:40,0.0
-11104,-120,11104,31,265,-149,2024-01-24 10:56:40,0.0
-11100,-12,11268,38,249,-159,2024-01-24 10:56:40,0.0
-11016,92,11212,26,270,-214,2024-01-24 10:56:40,0.0
-10944,104,11272,-17,212,-242,2024-01-24 10:56:40,
-11080,28,11192,-24,215,-216,2024-01-24 10:56:40,0.0
-10928,196,11480,-24,201,-242,2024-01-24 10:56:40,0.0
-10940,156,11500,-63,185,-203,2024-01-24 10:56:40,0.0
-10884,152,11248,-76,179,-188,2024-01-24 10:56:40,0.0
-10944,180,11228,-139,178,-157,2024-01-24 10:56:40,0.0
-10968,140,11288,-182,169,-184,2024-01-24 10:56:40,0.0
-10892,104,11404,-195,146,-198,2024-01-24 10:56:40,0.0
-11028,216,11124,-230,164,-221,2024-01-24 10:56:40,0.0
-11024,136,11196,-258,146,-227,2024-01-24 10:56:40,0.0
-11036,92,11204,-332,111,-205,2024-01-24 10:56:40,0.0
-11028,56,11288,-331,93,-193,2024-01-24 10:56:40,0.0
-11056,-32,11072,-324,72,-190,2024-01-24 10:56:40,0.0
-11048,24,11224,-312,111,-150,2024-01-24 10:56:40,0.0
-11084,-28,11272,-298,109,-155,2024-01-24 10:56:40,0.0
-11024,-72,11340,-309,157,-87,2024-01-24 10:56:40,0.0
-10820,-156,11472,-306,182,-148,2024-01-24 10:56:40,0.0
-10864,-132,11472,-249,239,-165,2024-01-24 10:56:40,0.0
-10900,-32,11496,-221,234,-190,2024-01-24 10:56:40,0.0
-11000,20,11276,-244,198,-183,2024-01-24 10:56:40,0.0
-11060,60,11216,-192,120,-185,2024-01-24 10:56:40,0.0
-11032,12,11156,-177,59,-200,2024-01-24 10:56:40,0.0
-11040,20,11304,-185,-3,-211,2024-01-24 10:56:41,0.0
-10900,-76,11388,-145,-16,-199,2024-01-24 10:56:41,0.0
-11008,-48,11144,-138,7,-183,2024-01-24 10:56:41,0.0
-10916,-124,11296,-170,52,-191,2024-01-24 10:56:41,0.0
-10888,-28,11252,-153,126,-196,2024-01-24 10:56:41,0.0
-11016,4,11444,-165,190,-164,2024-01-24 10:56:41,0.0
-10996,-32,11528,-172,229,-163,2024-01-24 10:56:41,0.0
-11016,92,11300,-195,199,-190,2024-01-24 10:56:41,0.0
-10988,88,11236,-201,178,-154,2024-01-24 10:56:41,0.0
-10968,84,11240,-189,172,-157,2024-01-24 10:56:41,0.0
-11068,36,11244,-242,179,-178,2024-01-24 10:56:41,0.0
-11016,8,11204,-228,193,-165,2024-01-24 10:56:41,0.0
-10868,48,11292,-239,148,-157,2024-01-24 10:56:41,0.0
-10940,-44,11392,-198,104,-169,2024-01-24 10:56:41,0.0
-10956,-60,11324,-211,109,-184,2024-01-24 10:56:41,0.0
-10884,-20,11356,-195,161,-171,2024-01-24 10:56:41,0.0
-10928,64,11484,-194,207,-206,2024-01-24 10:56:41,0.0
-10944,72,11400,-181,251,-202,2024-01-24 10:56:41,0.0
-10920,8,11276,-182,211,-223,2024-01-24 10:56:41,0.0
-10868,48,11288,-179,192,-198,2024-01-24 10:56:41,0.0
-10944,32,11268,-162,188,-191,2024-01-24 10:56:41,0.0
-11004,96,11284,-197,171,-177,2024-01-24 10:56:41,0.0
-10932,64,11340,-222,194,-193,2024-01-24 10:56:41,0.0
-10948,-76,11228,-167,209,-178,2024-01-24 10:56:41,0.0
-11048,124,11360,-196,193,-201,2024-01-24 10:56:41,0.0
-10968,-12,11200,-196,199,-174,2024-01-24 10:56:41,0.0
-10996,-12,11400,-190,172,-164,2024-01-24 10:56:41,0.0
-10908,-44,11264,-187,169,-187,2024-01-24 10:56:41,0.0
-10940,-44,11360,-200,151,-178,2024-01-24 10:56:41,0.0
-10948,-24,11376,-173,178,-195,2024-01-24 10:56:41,0.0
-10852,44,11500,-193,84,-173,2024-01-24 10:56:41,0.0
-11172,-12,11428,-126,-42,-200,2024-01-24 10:56:41,0.0
-11020,24,11204,-138,-209,-197,2024-01-24 10:56:41,0.0
-10936,8,11284,-100,-319,-222,2024-01-24 10:56:41,0.0
-10860,112,11224,-126,-355,-244,2024-01-24 10:56:41,0.0
-11000,28,11388,-178,-356,-207,2024-01-24 10:56:41,0.0
-10896,-76,11520,-218,-373,-165,2024-01-24 10:56:41,0.0
-10876,8,11460,-207,-335,-156,2024-01-24 10:56:41,0.0
-10784,-88,11492,-197,-292,-156,2024-01-24 10:56:41,0.0
-10936,-8,11592,-198,-241,-165,2024-01-24 10:56:41,0.0
-10796,8,11536,-179,-221,-155,2024-01-24 10:56:41,0.0
-10788,60,11604,-224,-174,-174,2024-01-24 10:56:41,0.0
-10784,68,11484,-243,-149,-177,2024-01-24 10:56:41,0.0
-10684,68,11580,-260,-72,-179,2024-01-24 10:56:41,0.0
-10824,68,11588,-234,34,-196,2024-01-24 10:56:41,0.0
-10744,88,11556,-250,11,-199,2024-01-24 10:56:41,0.0
-10876,16,11620,-253,47,-199,2024-01-24 10:56:41,0.0
-10752,68,11468,-244,39,-214,2024-01-24 10:56:41,0.0
-10880,44,11560,-243,47,-192,2024-01-24 10:56:41,0.0
-10772,36,11380,-237,61,-170,2024-01-24 10:56:41,0.0
-10824,36,11428,-205,111,-186,2024-01-24 10:56:41,0.0
-10872,80,11396,-209,114,-148,2024-01-24 10:56:41,0.0
-10740,52,11564,-147,132,-159,2024-01-24 10:56:41,0.0
-10720,-120,11612,-97,156,-143,2024-01-24 10:56:41,0.0
-10736,-148,11560,-72,212,-129,2024-01-24 10:56:41,0.0
-10752,-92,11736,-96,219,-77,2024-01-24 10:56:41,0.0
-10624,-132,11616,-108,197,-138,2024-01-24 10:56:41,0.0
-10760,-28,11696,-165,202,-163,2024-01-24 10:56:41,0.0
-10856,-20,11876,-187,173,-169,2024-01-24 10:56:42,0.0
-10836,-28,11712,-214,133,-206,2024-01-24 10:56:42,0.0
-10848,72,11508,-219,92,-180,2024-01-24 10:56:42,0.0
-10752,144,11460,-188,99,-158,2024-01-24 10:56:42,0.0
-10816,184,11460,-240,125,-194,2024-01-24 10:56:42,0.0
-11000,192,11360,-256,124,-161,2024-01-24 10:56:42,0.0
-10848,40,11504,-278,77,-194,2024-01-24 10:56:42,0.0
-10796,208,11548,-276,105,-212,2024-01-24 10:56:42,0.0
-10852,-16,11532,-299,114,-182,2024-01-24 10:56:42,0.0
-10840,-280,11440,-348,89,-151,2024-01-24 10:56:42,0.0
-10816,-264,11356,-345,58,-132,2024-01-24 10:56:42,0.0
-10832,-348,11524,-288,34,-166,2024-01-24 10:56:42,0.0
-10840,-220,11608,-231,92,-155,2024-01-24 10:56:42,0.0
-10564,-248,11796,-189,18,-169,2024-01-24 10:56:42,0.0
-10388,-64,11848,-89,10,-335,2024-01-24 10:56:42,0.0
-10572,212,11808,-34,83,-363,2024-01-24 10:56:42,0.0
-10892,228,11680,-16,241,-303,2024-01-24 10:56:42,0.0
-10724,216,11872,-112,288,-271,2024-01-24 10:56:42,0.0
-10416,412,11588,-144,338,-312,2024-01-24 10:56:42,0.0
-10400,532,11756,-71,466,-502,2024-01-24 10:56:42,0.0
-10424,1184,11732,336,309,-815,2024-01-24 10:56:42,
-10348,1748,11824,1050,-358,-1121,2024-01-24 10:56:42,0.0
-11380,1752,11128,1966,-1208,-1333,2024-01-24 10:56:42,0.0
-11560,-2072,10024,289,-825,-624,2024-01-24 10:56:42,0.0
-11000,-1536,11912,-1474,164,479,2024-01-24 10:56:42,0.0
-10720,-1364,12056,-1574,361,798,2024-01-24 10:56:42,0.0
-10228,-1028,11996,-1275,393,531,2024-01-24 10:56:42,0.0
-10384,-748,11872,-843,371,76,2024-01-24 10:56:42,0.0
-10728,-512,12064,-417,256,-164,2024-01-24 10:56:42,0.0
-10860,-252,12116,-177,142,-281,2024-01-24 10:56:42,0.0
-10544,188,11848,-7,175,-389,2024-01-24 10:56:42,0.0
-10428,420,11964,130,296,-427,2024-01-24 10:56:42,0.0
-10508,524,11576,214,493,-422,2024-01-24 10:56:42,0.0
-10540,348,11460,196,524,-364,2024-01-24 10:56:42,0.0
-10816,344,11564,231,442,-334,2024-01-24 10:56:42,0.0
-10884,52,11584,233,213,-302,2024-01-24 10:56:42,0.0
-10848,-16,11552,220,35,-245,2024-01-24 10:56:42,0.0
-10748,44,11544,144,21,-147,2024-01-24 10:56:42,0.0
-10676,152,11188,-35,202,-114,2024-01-24 10:56:42,0.0
-10680,136,11608,-240,273,-128,2024-01-24 10:56:42,0.0
-10780,100,11608,-340,276,-138,2024-01-24 10:56:42,0.0
-10692,40,11644,-323,266,-111,2024-01-24 10:56:42,0.0
-10760,112,11508,-346,378,-147,2024-01-24 10:56:42,0.0
-10696,8,11624,-342,486,-149,2024-01-24 10:56:42,0.0
-10816,-108,11876,-347,505,-103,2024-01-24 10:56:42,0.0
-10680,-112,11852,-312,595,-84,2024-01-24 10:56:42,0.0
-10752,-260,11776,-278,616,-67,2024-01-24 10:56:42,0.0
-10736,-188,11660,-240,552,-62,2024-01-24 10:56:42,0.0
-10816,-308,11728,-138,452,-47,2024-01-24 10:56:42,0.0
-10772,-308,11824,5,336,-74,2024-01-24 10:56:42,0.0
-10720,-104,11628,25,332,-83,2024-01-24 10:56:42,0.0
-10724,64,11588,-17,464,-179,2024-01-24 10:56:42,0.0
-10788,-12,11604,-77,568,-230,2024-01-24 10:56:42,0.0
-10936,-72,11424,-28,483,-266,2024-01-24 10:56:42,0.0
-11000,-40,11344,58,383,-253,2024-01-24 10:56:42,0.0
-10972,-48,11368,214,209,-250,2024-01-24 10:56:42,0.0
-10796,248,11452,247,274,-191,2024-01-24 10:56:42,0.0
-10688,304,11292,179,413,-233,2024-01-24 10:56:42,0.0
-10808,184,11444,98,369,-215,2024-01-24 10:56:42,0.0
-10796,160,11496,149,235,-228,2024-01-24 10:56:43,0.0
-10888,96,11396,159,199,-157,2024-01-24 10:56:43,0.0
-10812,124,11364,-176,430,-95,2024-01-24 10:56:43,0.0
-10876,60,11724,-466,614,-95,2024-01-24 10:56:43,0.0
-10780,-100,11628,-554,694,-63,2024-01-24 10:56:43,0.0
-10864,-64,11608,-488,597,-102,2024-01-24 10:56:43,0.0
-10816,-24,11440,-244,431,-172,2024-01-24 10:56:43,0.0
-10964,-172,11464,-241,500,-79,2024-01-24 10:56:43,0.0
-10860,-20,11476,-277,576,25,2024-01-24 10:56:43,0.0
-10876,4,11296,-222,438,-36,2024-01-24 10:56:43,0.0
-10952,-24,11452,-59,153,-151,2024-01-24 10:56:43,0.0
-10980,68,11236,14,-89,-228,2024-01-24 10:56:43,0.0
-10712,164,11468,34,-94,-340,2024-01-24 10:56:43,0.0
-10884,252,11172,-70,63,-380,2024-01-24 10:56:43,0.0
-10804,168,11440,-239,256,-332,2024-01-24 10:56:43,0.0
-10896,48,11528,-341,348,-197,2024-01-24 10:56:43,0.0
-10736,-8,11680,-348,504,-151,2024-01-24 10:56:43,0.0
-11356,368,11500,49,-347,-324,2024-01-24 10:56:43,0.0
-10640,104,11204,35,-287,-351,2024-01-24 10:56:43,0.0
-10688,-152,11736,-453,456,-278,2024-01-24 10:56:43,0.0
-10868,-204,11832,-586,734,-68,2024-01-24 10:56:43,0.0
-11080,-156,11524,-491,614,-82,2024-01-24 10:56:43,0.0
-10928,-72,11224,-321,343,-90,2024-01-24 10:56:43,0.0
-10804,-172,11328,-137,221,-118,2024-01-24 10:56:43,0.0
-10876,-72,11436,-98,231,-163,2024-01-24 10:56:43,0.0
-10988,8,11536,-97,85,-187,2024-01-24 10:56:43,0.0
-11040,76,11680,9,-178,-248,2024-01-24 10:56:43,0.0
-10820,132,11208,47,-106,-226,2024-01-24 10:56:43,0.0
-10764,232,11064,-50,61,-233,2024-01-24 10:56:43,0.0
-11028,100,11476,-424,165,-327,2024-01-24 10:56:43,0.0
-10916,12,11780,-504,388,-191,2024-01-24 10:56:43,0.0
-10800,-200,11596,-407,403,-100,2024-01-24 10:56:43,0.0
-10992,-148,11496,-201,308,-55,2024-01-24 10:56:43,0.0
-10788,40,11484,-123,92,-68,2024-01-24 10:56:43,0.0
-10792,64,11496,-25,-48,-175,2024-01-24 10:56:43,0.0
-10752,104,11468,78,-222,-235,2024-01-24 10:56:43,0.0
-10856,0,11248,101,-367,-281,2024-01-24 10:56:43,0.0
-10796,112,11352,19,-266,-279,2024-01-24 10:56:43,0.0
-10816,152,11368,-79,-52,-297,2024-01-24 10:56:43,0.0
-10700,172,11204,-116,44,-335,2024-01-24 10:56:43,0.0
-10772,176,11304,-90,25,-355,2024-01-24 10:56:43,0.0
-10912,148,11452,-102,28,-342,2024-01-24 10:56:43,0.0
-11108,168,11608,-243,216,-253,2024-01-24 10:56:43,0.0
-10948,-60,11712,-376,143,-158,2024-01-24 10:56:43,0.0
-10804,-36,11652,-351,-60,-212,2024-01-24 10:56:43,0.0
-10692,-152,11600,-228,-228,-297,2024-01-24 10:56:43,0.0
-10680,-212,11652,-143,-322,-350,2024-01-24 10:56:43,0.0
-10740,-232,11832,-8,-388,-413,2024-01-24 10:56:43,0.0
-10616,-140,11572,1,-212,-409,2024-01-24 10:56:43,0.0
-10728,-124,11592,-220,152,-311,2024-01-24 10:56:43,0.0
-10684,-140,11468,-384,487,-165,2024-01-24 10:56:43,0.0
-10824,-64,11544,-464,599,-60,2024-01-24 10:56:43,0.0
-10840,-36,11672,-428,599,-17,2024-01-24 10:56:43,0.0
-10848,-88,11684,-357,504,-17,2024-01-24 10:56:43,0.0
-10792,-88,11468,-332,507,0,2024-01-24 10:56:43,0.0
-10844,-68,11488,-291,349,-87,2024-01-24 10:56:43,0.0
-10860,-80,11440,-275,276,-121,2024-01-24 10:56:43,0.0
-10832,4,11548,-192,180,-177,2024-01-24 10:56:43,0.0
-10676,52,11664,-142,157,-189,2024-01-24 10:56:43,0.0
-10640,80,11504,-81,104,-204,2024-01-24 10:56:43,0.0
-10736,36,11644,-42,56,-215,2024-01-24 10:56:44,0.0
-10648,-52,11664,-14,140,-148,2024-01-24 10:56:44,
-10780,36,11668,9,223,-106,2024-01-24 10:56:44,0.0
-10892,136,11656,31,18,-247,2024-01-24 10:56:44,0.0
-10856,84,11500,17,-73,-406,2024-01-24 10:56:44,0.0
-10712,32,11396,-153,138,-314,2024-01-24 10:56:44,0.0
-10856,-24,11632,-175,223,-175,2024-01-24 10:56:44,0.0
-10868,-32,11592,-152,192,-111,2024-01-24 10:56:44,0.0
-11028,-160,11660,-181,98,-132,2024-01-24 10:56:44,0.0
-10952,-192,11524,-322,266,-115,2024-01-24 10:56:44,0.0
-10724,-212,11508,-459,337,-146,2024-01-24 10:56:44,0.0
-10728,-112,11740,-471,486,-172,2024-01-24 10:56:44,0.0
-10780,-140,11544,-387,468,-135,2024-01-24 10:56:44,0.0
-10756,-80,11508,-345,555,-70,2024-01-24 10:56:44,0.0
-10804,-48,11588,-344,529,-18,2024-01-24 10:56:44,0.0
-10812,52,11656,-244,384,-18,2024-01-24 10:56:44,0.0
-10764,40,11408,-174,269,-22,2024-01-24 10:56:44,0.0
-10812,40,11560,-138,216,-79,2024-01-24 10:56:44,0.0
-10740,8,11516,-69,227,-154,2024-01-24 10:56:44,0.0
-10712,-56,11452,-10,180,-209,2024-01-24 10:56:44,0.0
-10812,20,11508,14,75,-238,2024-01-24 10:56:44,0.0
-10744,56,11472,120,-19,-268,2024-01-24 10:56:44,0.0
-10612,96,11336,100,132,-203,2024-01-24 10:56:44,0.0
-10752,276,11404,17,321,-234,2024-01-24 10:56:44,0.0
-10856,172,11736,-61,259,-310,2024-01-24 10:56:44,0.0
-10936,32,11652,-46,170,-368,2024-01-24 10:56:44,0.0
-10832,-48,11528,-11,185,-324,2024-01-24 10:56:44,0.0
-10756,84,11596,-24,291,-258,2024-01-24 10:56:44,0.0
-10844,-100,11576,-194,530,-125,2024-01-24 10:56:44,0.0
-10940,-124,11460,-316,602,-66,2024-01-24 10:56:44,0.0
-10952,-92,11428,-350,571,-56,2024-01-24 10:56:44,0.0
-10756,-180,11408,-292,595,-88,2024-01-24 10:56:44,0.0
-10776,-108,11368,-242,642,-115,2024-01-24 10:56:44,0.0
-10876,-64,11568,-248,699,-159,2024-01-24 10:56:44,0.0
-10924,-120,11456,-242,697,-174,2024-01-24 10:56:44,0.0
-11008,-56,11404,-223,603,-176,2024-01-24 10:56:44,0.0
-11048,-156,11520,-338,568,-128,2024-01-24 10:56:44,0.0
-10788,-24,11408,-385,628,-78,2024-01-24 10:56:44,0.0
-10884,-16,11184,-362,528,-76,2024-01-24 10:56:44,0.0
-10984,-124,11408,-277,323,-88,2024-01-24 10:56:44,0.0
-11068,-84,11312,-124,55,-158,2024-01-24 10:56:44,0.0
-10952,20,11528,-63,-84,-157,2024-01-24 10:56:44,0.0
-10840,100,11356,-25,-178,-116,2024-01-24 10:56:44,0.0
-10796,148,11448,88,-283,-200,2024-01-24 10:56:44,0.0
-10936,124,11460,94,-166,-168,2024-01-24 10:56:44,0.0
-10860,196,11560,63,-131,-206,2024-01-24 10:56:44,0.0
-10892,184,11476,69,-335,-290,2024-01-24 10:56:44,0.0
-10920,224,11512,76,-415,-445,2024-01-24 10:56:44,0.0
-10928,-8,11336,-20,-218,-385,2024-01-24 10:56:44,0.0
-10860,-16,11420,-113,10,-202,2024-01-24 10:56:44,0.0
-10896,-28,11604,-91,1,-97,2024-01-24 10:56:44,0.0
-10768,-104,11760,-147,41,-71,2024-01-24 10:56:44,0.0
-10616,-260,11636,-215,155,-58,2024-01-24 10:56:44,0.0
-10748,-164,11424,-204,147,-169,2024-01-24 10:56:44,0.0
-10660,-132,11440,-262,340,-146,2024-01-24 10:56:44,0.0
-10868,4,11560,-301,359,-142,2024-01-24 10:56:44,0.0
-10920,-24,11548,-289,356,-138,2024-01-24 10:56:44,0.0
-10952,-48,11480,-359,401,-140,2024-01-24 10:56:44,0.0
-10940,40,11348,-473,527,-140,2024-01-24 10:56:45,0.0
-10844,132,11484,-515,484,-106,2024-01-24 10:56:45,0.0
-10748,68,11460,-399,263,-128,2024-01-24 10:56:45,0.0
-10772,-28,11496,-239,88,-181,2024-01-24 10:56:45,0.0
-10772,8,11588,-181,25,-151,2024-01-24 10:56:45,0.0
-10852,-60,11588,-111,34,-177,2024-01-24 10:56:45,0.0
-10752,-32,11504,-45,-5,-192,2024-01-24 10:56:45,0.0
-10720,-20,11316,-21,-64,-185,2024-01-24 10:56:45,0.0
-10644,128,11212,-13,-29,-195,2024-01-24 10:56:45,0.0
-10704,220,11424,-31,136,-133,2024-01-24 10:56:45,0.0
-10836,172,11468,-1,48,-147,2024-01-24 10:56:45,0.0
-10720,144,11640,46,72,-157,2024-01-24 10:56:45,0.0
-10784,36,11692,73,82,-260,2024-01-24 10:56:45,0.0
-10816,-28,11480,23,-92,-399,2024-01-24 10:56:45,0.0
-10932,60,11404,27,-109,-484,2024-01-24 10:56:45,0.0
-10944,-100,11388,-59,-13,-380,2024-01-24 10:56:45,0.0
-10736,-40,11456,-146,69,-250,2024-01-24 10:56:45,0.0
-10680,8,11508,-211,275,-113,2024-01-24 10:56:45,0.0
-10844,20,11332,-255,348,-70,2024-01-24 10:56:45,0.0
-10820,-96,11688,-237,323,-44,2024-01-24 10:56:45,0.0
-10784,-32,11400,-162,224,-164,2024-01-24 10:56:45,0.0
-10856,-8,11248,-172,248,-145,2024-01-24 10:56:45,0.0
-10804,8,11464,-232,248,-110,2024-01-24 10:56:45,0.0
-10840,96,11608,-267,291,-109,2024-01-24 10:56:45,0.0
-10808,20,11636,-300,279,-112,2024-01-24 10:56:45,0.0
-10772,-52,11592,-308,259,-142,2024-01-24 10:56:45,0.0
-10824,-36,11684,-262,255,-123,2024-01-24 10:56:45,0.0
-10892,-8,11512,-258,178,-123,2024-01-24 10:56:45,0.0
-10816,-4,11612,-145,45,-180,2024-01-24 10:56:45,0.0
-10632,40,11576,-103,150,-226,2024-01-24 10:56:45,0.0
-10832,-72,11592,-78,287,-183,2024-01-24 10:56:45,0.0
-10836,-52,11480,-50,227,-178,2024-01-24 10:56:45,0.0
-10740,12,11380,-30,288,-167,2024-01-24 10:56:45,0.0
-10720,176,11428,36,92,-203,2024-01-24 10:56:45,0.0
-10900,244,11376,117,-66,-215,2024-01-24 10:56:45,0.0
-10804,132,11608,143,-4,-158,2024-01-24 10:56:45,0.0
-10868,232,11508,138,-20,-165,2024-01-24 10:56:45,0.0
-10836,56,11628,182,-78,-158,2024-01-24 10:56:45,0.0
-10828,140,11412,179,-91,-223,2024-01-24 10:56:45,0.0
-10872,148,11592,79,-37,-200,2024-01-24 10:56:45,0.0
-10816,40,11648,-78,116,-169,2024-01-24 10:56:45,0.0
-10744,-100,11520,-241,364,-47,2024-01-24 10:56:45,0.0
-10708,-8,11696,-267,492,8,2024-01-24 10:56:45,0.0
-10712,80,11660,-203,470,12,2024-01-24 10:56:45,
