acceleration_x,acceleration_y,acceleration_z,gyroscope_x,gyroscope_y,gyroscope_z,timestamp,label
-0.8142,-0.1233,-0.0125,3.5095,-6.8665,-2.037,2024-02-12 15:49:19.455,0.0
-0.8208,-0.1052,-0.0088,6.0196,-8.7204,-3.006,2024-02-12 15:49:19.455,0.0
-0.8091,-0.0869,-0.0156,7.8964,-10.4675,-3.7079,2024-02-12 15:49:19.479,0.0
-0.8081,-0.084,-0.0071,8.1787,-8.5449,-4.3106,2024-02-12 15:49:19.495,0.0
-0.8096,-0.0718,-0.0176,7.3242,-1.0223,-5.5161,2024-02-12 15:49:19.511,0.0
-0.8291,-0.0552,-0.0293,6.1722,5.7526,-4.8904,2024-02-12 15:49:19.528,0.0
-0.8621,-0.0483,-0.0342,4.8447,5.6686,-4.4174,2024-02-12 15:49:19.552,0.0
-0.8865,-0.0461,-0.0398,3.4943,0.2441,-2.8687,2024-02-12 15:49:19.571,0.0
-0.8884,-0.0425,-0.0361,2.4567,-7.5607,-1.297,2024-02-12 15:49:19.587,0.0
-0.866,-0.032,-0.0161,0.5493,-12.9166,0.2823,2024-02-12 15:49:19.603,0.0
-0.824,-0.0325,-0.0024,-1.1292,-13.031,-0.7935,2024-02-12 15:49:19.627,0.0
-0.8064,-0.0444,-0.0139,-1.7166,-10.4218,-3.1357,2024-02-12 15:49:19.643,0.0
-0.8071,-0.061,0.001,-1.8387,-6.1035,-3.6926,2024-02-12 15:49:19.660,0.0
-0.8159,-0.0779,0.0054,-2.1744,-3.1204,-3.7231,2024-02-12 15:49:19.679,0.0
-0.8269,-0.094,0.0112,-2.3117,-3.3417,-4.7607,2024-02-12 15:49:19.695,0.0
-0.8455,-0.092,0.0171,-0.6714,-2.0447,-4.631,2024-02-12 15:49:19.711,0.0
-0.8467,-0.0718,0.0071,0.4501,-2.2583,-4.2419,2024-02-12 15:49:19.736,0.0
-0.8489,-0.0767,0.0281,1.0071,-2.8839,-3.952,2024-02-12 15:49:19.752,0.0
-0.8496,-0.0745,0.0432,1.9455,-2.4796,-3.5553,2024-02-12 15:49:19.769,0.0
-0.8582,-0.0664,0.0386,2.4872,-0.5798,-2.8687,2024-02-12 15:49:19.787,
-0.8501,-0.0623,0.0022,2.7008,0.5112,-1.915,2024-02-12 15:49:19.803,0.0
-0.8884,-0.0427,0.0049,1.1444,4.8218,-0.1602,2024-02-12 15:49:19.828,0.0
-0.8445,-0.0562,0.0278,-0.1755,1.1292,-0.679,2024-02-12 15:49:19.836,0.0
-0.8279,-0.0671,0.0129,-0.473,-2.2964,-1.0452,2024-02-12 15:49:19.860,0.0
-0.8276,-0.062,0.0149,-1.2436,-0.9384,-0.7019,2024-02-12 15:49:19.876,0.0
-0.8376,-0.0608,0.0161,-1.8463,2.8229,-0.2823,2024-02-12 15:49:19.898,0.0
-0.8501,-0.0576,0.0281,-2.1591,3.0365,0.3204,2024-02-12 15:49:19.914,0.0
-0.8237,-0.0715,0.0195,-2.1439,-1.5793,0.2213,2024-02-12 15:49:19.930,0.0
-0.8091,-0.0872,0.0432,-0.5569,-4.2114,-0.145,2024-02-12 15:49:19.954,0.0
-0.8035,-0.093,0.0337,0.4272,-2.5711,-1.6632,2024-02-12 15:49:19.979,0.0
-0.8088,-0.0745,0.0168,0.8545,3.0594,-2.6245,2024-02-12 15:49:20.004,0.0
-0.814,-0.0876,0.0471,1.3962,5.2032,-3.4637,2024-02-12 15:49:20.004,0.0
-0.8381,-0.0955,0.0476,2.0905,8.9951,-3.5248,2024-02-12 15:49:20.029,0.0
-0.8477,-0.1025,0.0364,3.1052,8.8425,-2.8229,2024-02-12 15:49:20.037,0.0
-0.8525,-0.0852,0.032,3.4943,8.1406,-2.1439,2024-02-12 15:49:20.061,0.0
-0.8647,-0.092,0.009,1.976,10.6964,-0.8774,2024-02-12 15:49:20.079,0.0
-0.8562,-0.0789,0.0303,1.1444,9.8648,-0.1984,2024-02-12 15:49:20.087,0.0
-0.8513,-0.0759,0.0203,0.5264,8.1329,0.9384,2024-02-12 15:49:20.111,0.0
-0.8428,-0.0659,-0.0012,-1.1826,6.279,0.9918,2024-02-12 15:49:20.136,0.0
-0.8296,-0.061,0.0071,-2.3727,6.424,0.6104,2024-02-12 15:49:20.144,
-0.8228,-0.0684,0.0093,-3.3722,6.3248,0.0687,2024-02-12 15:49:20.168,0.0
-0.8381,-0.0618,0.012,-4.1428,6.1646,-0.4196,2024-02-12 15:49:20.184,0.0
-0.8384,-0.0537,0.0151,-4.8218,4.8294,-0.6485,2024-02-12 15:49:20.200,0.0
-0.8491,-0.0642,0.0205,-5.2414,4.2801,-0.6104,2024-02-12 15:49:20.217,0.0
-0.844,-0.0674,0.0125,-5.6381,4.0359,-0.7629,2024-02-12 15:49:20.233,0.0
-0.8459,-0.0686,0.0039,-5.5237,3.54,-0.7553,2024-02-12 15:49:20.259,0.0
-0.8489,-0.0762,0.0046,-5.5008,2.5406,-0.7858,2024-02-12 15:49:20.275,0.0
-0.8413,-0.0723,0.0073,-5.2719,2.0523,-1.03,2024-02-12 15:49:20.293,0.0
-0.8418,-0.0623,0.0186,-5.043,2.0142,-0.9842,2024-02-12 15:49:20.330,0.0
-0.8423,-0.071,-0.0034,-4.7302,1.9608,-0.9842,2024-02-12 15:49:20.330,0.0
-0.8286,-0.0713,-0.0032,-5.5771,2.2888,-0.8011,2024-02-12 15:49:20.347,0.0
-0.8262,-0.0691,0.0093,-5.1041,3.4943,-1.358,2024-02-12 15:49:20.363,0.0
-0.8457,-0.0583,0.0183,-5.043,5.3711,-1.8005,2024-02-12 15:49:20.387,0.0
-0.8501,-0.0715,0.0081,-4.715,4.5471,-1.8539,2024-02-12 15:49:20.395,0.0
-0.8582,-0.0652,-0.0034,-5.0201,2.0523,-1.152,2024-02-12 15:49:20.419,0.0
-0.8384,-0.0647,-0.0042,-4.5013,-0.1144,-0.6638,2024-02-12 15:49:20.436,0.0
-0.8174,-0.0645,0.0027,-4.5395,1.5945,-1.1749,2024-02-12 15:49:20.452,0.0
-0.8171,-0.0603,0.0073,-4.5319,4.9591,-1.9531,2024-02-12 15:49:20.469,0.0
-0.821,-0.0583,0.0083,-4.0359,7.6904,-2.6855,2024-02-12 15:49:20.493,0.0
-0.8401,-0.0598,0.0112,-3.8834,8.4915,-3.1509,2024-02-12 15:49:20.510,
-0.8486,-0.0586,-0.0132,-4.5013,6.7978,-2.4643,2024-02-12 15:49:20.526,0.0
-0.8518,-0.0574,-0.0305,-5.4092,4.4937,-2.2049,2024-02-12 15:49:20.543,0.0
-0.8335,-0.053,-0.0178,-5.722,3.9825,-1.8921,2024-02-12 15:49:20.567,0.0
-0.8342,-0.0579,-0.0159,-6.012,5.2567,-2.2812,2024-02-12 15:49:20.584,0.0
-0.8267,-0.0527,-0.043,-6.34,6.0349,-2.4414,2024-02-12 15:49:20.602,0.0
-0.8386,-0.0637,-0.0486,-7.0343,5.8365,-1.976,2024-02-12 15:49:20.619,0.0
-0.8416,-0.0649,-0.0557,-7.6752,5.8594,-1.3428,2024-02-12 15:49:20.643,0.0
-0.8311,-0.0593,-0.0503,-8.5831,6.6605,-1.2436,2024-02-12 15:49:20.659,0.0
-0.8323,-0.0613,-0.0671,-8.7738,8.9417,-1.9073,2024-02-12 15:49:20.667,0.0
-0.8323,-0.0532,-0.0623,-8.8882,10.6812,-2.6474,2024-02-12 15:49:20.692,0.0
-0.8455,-0.0684,-0.0947,-9.3536,10.5362,-2.2888,2024-02-12 15:49:20.716,0.0
-0.8333,-0.0688,-0.1079,-10.5133,10.3226,-2.9449,2024-02-12 15:49:20.724,0.0
-0.8391,-0.0676,-0.1089,-11.0626,11.3678,-4.3564,2024-02-12 15:49:20.749,0.0
-0.8425,-0.0688,-0.1208,-10.9634,11.1313,-4.7531,2024-02-12 15:49:20.766,0.0
-0.8318,-0.0618,-0.1572,-12.4283,10.2997,-4.715,2024-02-12 15:49:20.793,0.0
-0.8206,-0.0718,-0.1406,-12.9623,8.7357,-4.9438,2024-02-12 15:49:20.800,0.0
-0.823,-0.0686,-0.1516,-12.7258,7.5684,-4.6158,2024-02-12 15:49:20.825,0.0
-0.8008,-0.0933,-0.1797,-13.916,2.9449,-4.9362,2024-02-12 15:49:20.841,0.0
-0.7788,-0.1294,-0.2017,-14.8239,-1.3199,-6.3248,2024-02-12 15:49:20.849,0.0
-0.7981,-0.075,-0.2246,-13.1989,3.7766,-5.8746,2024-02-12 15:49:20.874,
-0.769,-0.0884,-0.2644,-12.4664,8.2932,-5.0583,2024-02-12 15:49:20.898,0.0
-0.8054,-0.0496,-0.2661,-9.7733,11.6043,-4.364,2024-02-12 15:49:20.909,0.0
-0.8318,-0.0383,-0.2512,-4.5395,13.5651,1.442,2024-02-12 15:49:20.933,0.0
-0.7153,-0.1519,-0.2649,-0.6943,7.6752,0.9918,2024-02-12 15:49:20.950,0.0
-0.6316,-0.1313,-0.1753,3.685,2.4185,-7.1259,2024-02-12 15:49:20.967,0.0
-0.5945,-0.2009,-0.0242,12.085,13.0997,-13.7253,2024-02-12 15:49:20.983,0.0
-0.5925,-0.1987,-0.0127,15.6479,27.6337,-20.7825,2024-02-12 15:49:21.000,0.0
-0.7158,-0.166,-0.0168,13.6719,44.5175,-22.3389,2024-02-12 15:49:21.024,0.0
-0.7891,-0.1343,-0.0447,16.8839,51.1856,-19.6838,2024-02-12 15:49:21.041,0.0
-0.8613,-0.092,-0.1001,13.2828,45.8832,-14.7095,2024-02-12 15:49:21.057,0.0
-0.8767,-0.0691,-0.1455,5.6992,32.1045,-7.4921,2024-02-12 15:49:21.073,0.0
-0.8708,-0.0676,-0.1267,-0.9842,19.6533,0.1602,2024-02-12 15:49:21.090,0.0
-0.7983,-0.1121,-0.1409,-6.8207,9.8572,4.5929,2024-02-12 15:49:21.109,0.0
-0.7009,-0.0913,-0.2271,-6.5384,10.1013,3.334,2024-02-12 15:49:21.125,0.0
-0.6699,-0.0771,-0.1956,-9.758,24.8489,-9.3536,2024-02-12 15:49:21.142,0.0
-0.7458,-0.1482,0.0122,-12.3215,38.1546,-28.6942,2024-02-12 15:49:21.167,0.0
-0.9395,-0.1025,0.1331,-4.7455,28.0228,-32.7148,2024-02-12 15:49:21.191,0.0
-0.9331,-0.137,0.0298,0.7858,8.728,-20.8969,2024-02-12 15:49:21.207,0.0
-0.7339,-0.1987,-0.0046,-0.9308,4.7531,-9.0637,2024-02-12 15:49:21.231,0.0
-0.5647,-0.1716,0.0115,-3.2959,18.0206,-8.728,2024-02-12 15:49:21.239,
-0.5383,-0.1562,0.0137,-0.3281,32.2723,-15.9454,2024-02-12 15:49:21.263,0.0
-0.6292,-0.1125,-0.0547,1.9989,29.4037,-23.4985,2024-02-12 15:49:21.271,0.0
-1.0234,-0.1179,0.0071,-0.2594,19.3481,-19.3253,2024-02-12 15:49:21.295,0.0
-0.7417,-0.1091,0.0403,1.0605,19.5999,-14.8773,2024-02-12 15:49:21.312,0.0
-0.8752,-0.1345,0.0769,5.5084,10.2997,-6.2485,2024-02-12 15:49:21.328,0.0
-0.7783,-0.1631,0.0156,6.2408,-5.4398,12.3749,2024-02-12 15:49:21.344,0.0
-0.5698,-0.1199,0.0732,9.3994,-20.2408,3.8528,2024-02-12 15:49:21.369,0.0
-0.6526,-0.0471,-0.0417,9.9564,-29.4037,0.2823,2024-02-12 15:49:21.385,0.0
-0.7373,-0.0071,-0.0581,6.752,-37.0255,5.3406,2024-02-12 15:49:21.402,0.0
-0.7009,-0.0281,-0.0088,3.3035,-51.1169,11.1771,2024-02-12 15:49:21.418,0.0
-0.7793,-0.0715,0.0078,2.6398,-56.5033,6.7978,2024-02-12 15:49:21.442,0.0
-0.894,-0.1235,-0.0786,3.9368,-59.761,4.3106,2024-02-12 15:49:21.459,0.0
-0.8772,-0.2048,-0.0947,5.8517,-61.4166,3.7384,2024-02-12 15:49:21.476,0.0
-0.8823,-0.1184,-0.2375,6.5689,-63.3698,5.0735,2024-02-12 15:49:21.492,0.0
-0.9565,-0.1748,-0.1013,7.8049,-65.9943,8.0032,2024-02-12 15:49:21.508,0.0
-0.8582,-0.1863,-0.0149,8.316,-73.7305,10.9634,2024-02-12 15:49:21.535,0.0
-0.822,-0.1519,0.0791,9.7733,-75.7599,8.5831,2024-02-12 15:49:21.552,0.0
-0.7344,-0.1135,0.094,13.7787,-72.5555,0.9689,2024-02-12 15:49:21.568,0.0
-0.6152,-0.0503,-0.0273,15.6708,-63.3621,-5.7602,2024-02-12 15:49:21.584,0.0
-0.78,-0.042,0.0925,11.7035,-66.246,-5.7602,2024-02-12 15:49:21.609,
-0.79,-0.0706,0.0505,7.8964,-63.5757,-5.5237,2024-02-12 15:49:21.627,0.0
-0.9233,-0.1941,0.0081,5.4016,-60.1196,-4.1962,2024-02-12 15:49:21.651,0.0
-0.9602,-0.1921,0.0632,4.6005,-59.3719,-4.0054,2024-02-12 15:49:21.667,0.0
-1.0264,-0.1794,0.1038,4.9057,-62.9959,-4.4403,2024-02-12 15:49:21.692,0.0
-1.0295,-0.1462,0.1479,4.9515,-71.3425,0.4807,2024-02-12 15:49:21.700,0.0
-1.0308,-0.0801,0.186,2.8534,-75.0809,3.1128,2024-02-12 15:49:21.719,0.0
-0.9927,-0.0635,0.231,0.3204,-77.1637,5.4245,2024-02-12 15:49:21.727,0.0
-0.949,-0.0725,0.2927,0.2289,-73.3261,3.5782,2024-02-12 15:49:21.751,0.0
-1.0156,-0.1194,0.2844,0.9079,-66.6504,4.6768,2024-02-12 15:49:21.767,0.0
-1.084,-0.1536,0.251,1.4572,-59.2041,10.0708,2024-02-12 15:49:21.783,0.0
-1.125,-0.1553,0.2583,2.8,-60.3561,12.3291,2024-02-12 15:49:21.800,0.0
-1.0996,-0.1096,0.2551,4.0741,-62.3856,12.6724,2024-02-12 15:49:21.819,0.0
-1.0623,-0.103,0.2954,2.8534,-62.8433,8.1863,2024-02-12 15:49:21.836,0.0
-1.0459,-0.1006,0.3777,1.236,-57.1518,5.5008,2024-02-12 15:49:21.861,0.0
-0.9905,-0.1013,0.4141,-0.3433,-52.6352,2.6016,2024-02-12 15:49:21.877,0.0
-0.8667,-0.0977,0.4705,0.4196,-46.9208,9.7885,2024-02-12 15:49:21.893,0.0
-0.7241,-0.0742,0.4863,-0.5798,-36.3617,14.3051,2024-02-12 15:49:21.910,0.0
-0.6392,-0.0725,0.4785,-4.0283,-17.8223,12.9395,2024-02-12 15:49:21.935,0.0
-0.6501,-0.0869,0.4724,-5.661,-8.1711,10.0861,2024-02-12 15:49:21.952,0.0
-0.5862,-0.1628,0.481,-4.4174,-5.4474,5.4932,2024-02-12 15:49:21.968,
-0.6887,-0.1689,0.511,-1.8997,-11.9019,3.4637,2024-02-12 15:49:21.984,0.0
-0.6711,-0.1458,0.4573,-0.5569,-10.1624,3.2959,2024-02-12 15:49:22.001,0.0
-0.6487,-0.1313,0.4541,-1.6174,-3.4714,1.9608,2024-02-12 15:49:22.018,0.0
-0.7327,-0.1294,0.3948,-4.2648,4.3945,0.1144,2024-02-12 15:49:22.034,0.0
-0.8547,-0.1318,0.426,-7.3624,1.8921,-1.8845,2024-02-12 15:49:22.059,0.0
-0.8682,-0.1179,0.4155,-6.279,-6.0806,-2.449,2024-02-12 15:49:22.075,0.0
-0.8901,-0.106,0.4319,-3.9978,-16.0522,-2.3346,2024-02-12 15:49:22.100,0.0
-0.8672,-0.1082,0.4019,-1.5411,-24.1165,-1.7853,2024-02-12 15:49:22.108,0.0
-0.8508,-0.0891,0.4021,-0.1373,-22.5983,-1.7776,2024-02-12 15:49:22.133,0.0
-0.8726,-0.0686,0.4097,0.7477,-21.8582,-1.3275,2024-02-12 15:49:22.150,0.0
-0.8621,-0.0566,0.4197,0.4959,-23.1857,0.3891,2024-02-12 15:49:22.166,0.0
-0.8442,-0.0559,0.4355,1.0681,-25.0473,2.4948,2024-02-12 15:49:22.182,0.0
-0.825,-0.0635,0.4697,1.1139,-26.7715,4.1428,2024-02-12 15:49:22.207,0.0
-0.8259,-0.0698,0.5061,1.0529,-26.3596,4.7607,2024-02-12 15:49:22.215,0.0
-0.8149,-0.0823,0.542,1.3657,-25.5127,6.2103,2024-02-12 15:49:22.240,0.0
-0.7864,-0.0969,0.553,2.3193,-24.4675,5.8823,2024-02-12 15:49:22.256,0.0
-0.7588,-0.1152,0.5691,3.3264,-22.6364,5.2032,2024-02-12 15:49:22.273,0.0
-0.7378,-0.1089,0.603,4.1885,-18.8065,3.5629,2024-02-12 15:49:22.289,0.0
-0.7241,-0.0952,0.5994,4.6768,-11.4975,2.9602,2024-02-12 15:49:22.306,0.0
-0.7097,-0.1057,0.6035,4.1962,-6.4774,2.2507,2024-02-12 15:49:22.331,
-0.728,-0.1096,0.5984,3.7994,-4.6539,0.7477,2024-02-12 15:49:22.348,0.0
-0.7544,-0.1113,0.584,3.5248,-3.952,0.473,2024-02-12 15:49:22.364,0.0
-0.7786,-0.1001,0.5837,4.3335,-1.9989,1.1444,2024-02-12 15:49:22.380,0.0
-0.739,-0.0955,0.5654,5.5771,2.2736,2.1133,2024-02-12 15:49:22.396,0.0
-0.7539,-0.1155,0.5544,6.1111,-2.3041,3.7079,2024-02-12 15:49:22.421,0.0
-0.7737,-0.1074,0.542,5.5847,-7.7591,4.1656,2024-02-12 15:49:22.437,0.0
-0.7637,-0.0806,0.5261,4.4479,-13.588,4.425,2024-02-12 15:49:22.453,0.0
-0.7439,-0.0483,0.5361,3.1738,-15.3809,4.4403,2024-02-12 15:49:22.470,0.0
-0.7437,-0.0508,0.5586,2.7771,-14.8697,4.3335,2024-02-12 15:49:22.494,0.0
-0.7266,-0.0503,0.5752,2.7161,-13.8626,3.5172,2024-02-12 15:49:22.511,0.0
-0.7334,-0.0508,0.5884,3.2959,-12.7029,3.3646,2024-02-12 15:49:22.527,0.0
-0.7527,-0.0527,0.593,3.5934,-11.4212,3.8147,2024-02-12 15:49:22.544,0.0
-0.7419,-0.0422,0.5901,3.891,-9.8648,4.1809,2024-02-12 15:49:22.560,0.0
-0.7234,-0.0471,0.5964,4.3945,-7.8201,3.9368,2024-02-12 15:49:22.584,0.0
-0.708,-0.0483,0.6211,5.2261,-5.6305,2.9297,2024-02-12 15:49:22.601,0.0
-0.6924,-0.0422,0.6182,5.1956,-3.212,2.1973,2024-02-12 15:49:22.617,0.0
-0.7156,-0.0425,0.6057,5.2872,-0.885,1.6022,2024-02-12 15:49:22.634,0.0
-0.7102,-0.0449,0.5977,5.1422,0.7095,1.7319,2024-02-12 15:49:22.652,0.0
-0.7295,-0.0388,0.5967,5.394,0.9384,1.9531,2024-02-12 15:49:22.668,0.0
-0.728,-0.0347,0.5977,5.8136,-2.0447,2.1896,2024-02-12 15:49:22.684,
-0.7271,-0.0227,0.6111,5.8975,-5.8517,2.037,2024-02-12 15:49:22.709,0.0
-0.7217,-0.0161,0.6172,5.4703,-8.3618,1.5869,2024-02-12 15:49:22.725,0.0
-0.7085,-0.0168,0.6292,5.188,-8.2855,1.3657,2024-02-12 15:49:22.742,0.0
-0.7012,-0.0181,0.6414,4.4556,-5.2567,1.1826,2024-02-12 15:49:22.758,0.0
-0.6985,-0.0134,0.6438,3.4027,-1.2665,0.351,2024-02-12 15:49:22.775,0.0
-0.7187,-0.0103,0.6272,2.5024,1.9608,-1.0452,2024-02-12 15:49:22.800,0.0
-0.7122,-0.0049,0.613,2.2812,4.6463,-2.2888,2024-02-12 15:49:22.817,0.0
-0.7148,0.0042,0.5923,2.0447,7.6141,-3.479,2024-02-12 15:49:22.833,0.0
-0.7244,-0.0042,0.5762,1.5869,9.0942,-3.8071,2024-02-12 15:49:22.857,0.0
-0.7356,-0.0015,0.5571,1.1139,9.1171,-2.8915,2024-02-12 15:49:22.873,0.0
-0.7456,-0.0061,0.5542,0.8469,9.14,-2.1515,2024-02-12 15:49:22.897,0.0
-0.7495,-0.0181,0.554,0.5188,8.1635,-1.8845,2024-02-12 15:49:22.905,0.0
-0.7495,-0.0164,0.5554,0.5875,7.6141,-1.3504,2024-02-12 15:49:22.929,0.0
-0.7456,-0.0259,0.5276,0.2213,8.3847,-1.6403,2024-02-12 15:49:22.945,0.0
-0.7493,-0.0391,0.5151,-0.8469,12.7945,-1.3885,2024-02-12 15:49:22.961,0.0
-0.7625,-0.0459,0.5061,-3.0746,14.7934,-0.8621,2024-02-12 15:49:22.977,0.0
-0.8057,-0.0559,0.5366,-2.6321,14.7858,0.9995,2024-02-12 15:49:23.002,0.0
-0.7856,-0.0408,0.5452,-1.9531,7.637,1.3733,2024-02-12 15:49:23.010,0.0
-0.7661,-0.0117,0.5808,-1.2131,-1.2054,-0.7858,2024-02-12 15:49:23.035,0.0
-0.719,-0.0154,0.5869,-2.1744,-5.6686,-2.2888,2024-02-12 15:49:23.047,
-0.7097,0.0061,0.5801,-5.0201,-3.4256,-3.3951,2024-02-12 15:49:23.071,0.0
-0.7007,0.0156,0.6111,-6.3705,1.7853,-3.2425,2024-02-12 15:49:23.095,0.0
-0.6868,0.0083,0.6116,-6.4926,6.6299,-3.7384,2024-02-12 15:49:23.103,0.0
-0.6687,-0.011,0.6218,-6.897,11.4059,-5.9586,2024-02-12 15:49:23.127,0.0
-0.6558,-0.0281,0.6375,-7.2327,15.2817,-8.3694,2024-02-12 15:49:23.143,0.0
-0.6597,-0.0344,0.6416,-7.2784,21.8506,-11.0092,2024-02-12 15:49:23.161,0.0
-0.6785,-0.0271,0.6455,-6.813,28.6713,-12.3138,2024-02-12 15:49:23.177,0.0
-0.6443,-0.0403,0.6196,-7.8354,38.559,-15.1138,2024-02-12 15:49:23.193,0.0
-0.667,-0.0244,0.5989,-12.886,48.8052,-21.4386,2024-02-12 15:49:23.219,0.0
-0.7456,-0.0281,0.6069,-21.0114,56.7474,-35.3622,2024-02-12 15:49:23.235,0.0
-0.9858,-0.0166,0.6128,-26.2756,52.2842,-46.1578,2024-02-12 15:49:23.252,0.0
-1.0603,0.0049,0.6426,-25.2457,42.3355,-38.2538,2024-02-12 15:49:23.276,0.0
-1.0127,-0.0254,0.6223,-22.3007,42.2897,-27.6489,2024-02-12 15:49:23.284,0.0
-1.0852,-0.0183,0.5972,-18.1427,47.5693,-18.1885,2024-02-12 15:49:23.309,0.0
-1.1135,-0.0293,0.6411,-11.1542,52.5131,-8.5678,2024-02-12 15:49:23.325,0.0
-1.0745,-0.1526,0.6162,-4.5547,50.0565,-2.739,2024-02-12 15:49:23.341,0.0
-0.9575,-0.2258,0.5559,-1.0223,40.9927,-4.9133,2024-02-12 15:49:23.358,0.0
-0.8979,-0.2048,0.5344,-1.4496,38.8718,-9.3002,2024-02-12 15:49:23.374,0.0
-0.8811,-0.1792,0.4858,-3.2883,49.0494,-10.6735,2024-02-12 15:49:23.401,0.0
-0.926,-0.1604,0.4617,-4.1046,56.4117,-9.3689,2024-02-12 15:49:23.409,
-0.9275,-0.1768,0.4231,-3.9444,56.2744,-7.1869,2024-02-12 15:49:23.434,0.0
-0.8831,-0.176,0.4099,-2.3575,51.9333,-7.9193,2024-02-12 15:49:23.450,0.0
-0.8792,-0.1868,0.3735,-1.5259,48.5764,-7.2708,2024-02-12 15:49:23.466,0.0
-0.8577,-0.1531,0.3435,-1.6632,50.8957,-7.1564,2024-02-12 15:49:23.482,0.0
-0.886,-0.1057,0.3303,-1.0834,52.2308,-6.134,2024-02-12 15:49:23.507,0.0
-0.9231,-0.0837,0.2893,-0.7935,53.6423,-4.8599,2024-02-12 15:49:23.523,0.0
-0.9033,-0.113,0.2661,-0.0076,54.0466,-4.8447,2024-02-12 15:49:23.544,0.0
-0.8689,-0.1394,0.2058,-0.3052,52.9022,-5.3558,2024-02-12 15:49:23.592,0.0
-0.8313,-0.1743,0.1826,-0.7935,53.8712,-6.5002,2024-02-12 15:49:23.592,0.0
-0.8372,-0.2029,0.1526,-1.8616,56.015,-7.7057,2024-02-12 15:49:23.600,0.0
-0.8599,-0.1921,0.145,-1.5793,57.5256,-8.1253,2024-02-12 15:49:23.624,0.0
-0.8628,-0.2056,0.1338,-1.3733,56.9916,-9.0637,2024-02-12 15:49:23.632,0.0
-0.8591,-0.1929,0.1331,-1.5182,54.8325,-10.0708,2024-02-12 15:49:23.658,0.0
-0.845,-0.1702,0.1365,-1.4191,49.5682,-7.8049,2024-02-12 15:49:23.666,0.0
-0.8313,-0.1619,0.1211,-2.3193,45.6238,-6.1264,2024-02-12 15:49:23.691,0.0
-0.8025,-0.1252,0.1206,-3.746,42.4881,-5.2872,2024-02-12 15:49:23.724,0.0
-0.7905,-0.1387,0.1094,-5.5237,38.8031,-4.6234,2024-02-12 15:49:23.724,0.0
-0.802,-0.1257,0.1143,-6.9351,37.0789,-3.9673,2024-02-12 15:49:23.740,0.0
-0.7832,-0.1326,0.1238,-6.9427,32.4707,-3.5477,2024-02-12 15:49:23.757,0.0
-0.7856,-0.1655,0.1145,-6.1569,29.0375,-3.1281,2024-02-12 15:49:23.781,
-0.7761,-0.1638,0.1204,-5.9433,26.4359,-2.3193,2024-02-12 15:49:23.789,0.0
-0.7786,-0.1584,0.1099,-5.1727,26.3977,-0.6027,2024-02-12 15:49:23.815,0.0
-0.7908,-0.1401,0.1011,-5.2795,29.007,1.2817,2024-02-12 15:49:23.832,0.0
-0.8,-0.1438,0.0737,-5.1956,31.8832,3.1357,2024-02-12 15:49:23.857,0.0
-0.8369,-0.1621,0.0457,-5.1193,34.2712,5.4016,2024-02-12 15:49:23.865,0.0
-0.8882,-0.1321,-0.052,-9.9411,45.9671,10.8185,2024-02-12 15:49:23.889,0.0
-0.8347,-0.1484,-0.0251,-11.9781,44.0979,12.825,2024-02-12 15:49:23.907,0.0
-0.8101,-0.165,0.0583,-7.37,26.9699,10.376,2024-02-12 15:49:23.949,0.0
-0.8113,-0.1743,0.0332,-1.5793,17.2806,10.6964,2024-02-12 15:49:23.949,0.0
-0.7949,-0.1414,-0.0486,-0.7553,19.7983,12.5198,2024-02-12 15:49:23.958,0.0
-0.7231,-0.1562,-0.0588,-2.6627,24.0326,12.1613,2024-02-12 15:49:23.974,0.0
-0.6948,-0.1323,0.0649,0.885,24.3149,10.4599,2024-02-12 15:49:23.998,0.0
-0.7065,-0.0854,0.0491,5.806,22.6746,13.7863,2024-02-12 15:49:24.008,0.0
-0.689,-0.0649,-0.0095,6.7139,16.9373,16.7847,2024-02-12 15:49:24.049,0.0
-0.6614,-0.0627,-0.0415,7.1869,13.5422,18.0893,2024-02-12 15:49:24.057,0.0
-0.6379,-0.0757,-0.0676,7.2021,11.2915,17.8833,2024-02-12 15:49:24.065,0.0
-0.5845,-0.1001,-0.0649,6.6376,4.8218,15.9836,2024-02-12 15:49:24.082,0.0
-0.573,-0.1062,-0.0657,8.4686,-1.7166,11.9476,2024-02-12 15:49:24.100,0.0
-0.5911,-0.0901,-0.0503,10.5133,-0.5493,7.7209,2024-02-12 15:49:24.124,0.0
-0.6323,-0.051,-0.052,10.7117,-0.8469,6.6452,2024-02-12 15:49:24.141,
-0.6489,-0.0461,-0.0713,9.5596,-1.9455,6.5842,2024-02-12 15:49:24.158,0.0
-0.6455,-0.0654,-0.165,7.9117,-0.0916,4.2038,2024-02-12 15:49:24.182,0.0
-0.6624,-0.0872,-0.2896,6.6452,5.5771,1.0529,2024-02-12 15:49:24.200,0.0
-0.6985,-0.0698,-0.3257,2.0218,8.8043,-2.9678,2024-02-12 15:49:24.225,0.0
-0.7649,-0.0757,-0.2822,-3.9139,10.5972,-4.2648,2024-02-12 15:49:24.225,0.0
-0.8035,-0.0693,-0.2151,-4.7607,11.3831,-4.6463,2024-02-12 15:49:24.259,0.0
-0.8015,-0.0725,-0.2095,-2.9831,5.6534,-5.9052,2024-02-12 15:49:24.268,0.0
-0.8301,-0.0933,-0.1902,-1.8997,0.7019,-5.9357,2024-02-12 15:49:24.284,0.0
-0.8389,-0.1365,-0.1514,0.6104,-0.0534,-3.2654,2024-02-12 15:49:24.301,0.0
-0.8162,-0.1167,-0.1716,1.8082,-2.4414,-1.8616,2024-02-12 15:49:24.317,0.0
-0.8237,-0.1108,-0.1677,2.0142,-4.7913,-0.4349,2024-02-12 15:49:24.335,0.0
-0.8057,-0.1125,-0.2087,2.1973,-7.7057,1.564,2024-02-12 15:49:24.360,0.0
-0.7798,-0.1091,-0.2307,0.351,-7.9803,2.3346,2024-02-12 15:49:24.377,0.0
-0.7668,-0.1016,-0.2114,-1.9989,-4.0894,1.5564,2024-02-12 15:49:24.401,0.0
-0.7622,-0.0959,-0.1978,-3.1281,-0.7858,0.1602,2024-02-12 15:49:24.413,0.0
-0.7593,-0.0664,-0.1985,-3.3112,3.2349,-1.236,2024-02-12 15:49:24.429,0.0
-0.7476,-0.052,-0.2261,-6.5918,5.2567,-2.3575,2024-02-12 15:49:24.454,0.0
-0.7468,-0.0444,-0.2329,-10.1318,7.7667,-3.7689,2024-02-12 15:49:24.462,0.0
-0.7559,-0.0498,-0.2505,-13.9465,10.0861,-4.9515,2024-02-12 15:49:24.486,0.0
-0.7488,-0.0659,-0.2571,-16.0675,9.0332,-3.5706,2024-02-12 15:49:24.502,
-0.7175,-0.0876,-0.2771,-16.2659,8.1406,-2.0142,2024-02-12 15:49:24.528,0.0
-0.667,-0.1035,-0.2725,-15.9454,7.2784,-1.9379,2024-02-12 15:49:24.536,0.0
-0.6187,-0.1055,-0.2268,-16.2201,11.116,-3.4943,2024-02-12 15:49:24.560,0.0
-0.5635,-0.1252,-0.1887,-16.8991,20.4239,-6.485,2024-02-12 15:49:24.576,0.0
-0.5781,-0.1558,-0.1575,-15.4343,33.3786,-10.788,2024-02-12 15:49:24.601,0.0
-0.6472,-0.144,-0.2012,-13.3896,34.6603,-13.9618,2024-02-12 15:49:24.618,0.0
-0.6736,-0.1226,-0.1316,-12.8021,18.1503,-13.1836,2024-02-12 15:49:24.634,0.0
-0.6458,-0.1396,-0.0886,-9.6664,5.4855,-13.1302,2024-02-12 15:49:24.651,0.0
-0.6577,-0.1321,-0.1343,-6.7215,8.4839,-12.9089,2024-02-12 15:49:24.675,0.0
-0.696,-0.075,-0.1572,-5.6686,16.7313,-13.7253,2024-02-12 15:49:24.691,0.0
-0.7275,-0.0391,-0.1125,-2.8152,7.3547,-11.8561,2024-02-12 15:49:24.708,0.0
-0.7656,-0.0391,-0.1104,-4.6768,-5.722,-8.2245,2024-02-12 15:49:24.724,0.0
-0.7866,-0.0156,-0.1157,-9.3002,-15.9607,-4.6463,2024-02-12 15:49:24.741,0.0
-0.7998,-0.0144,-0.1909,-18.0054,-32.0969,-2.2507,2024-02-12 15:49:24.773,0.0
-0.7683,-0.0154,-0.0881,-23.7579,-61.9125,1.9684,2024-02-12 15:49:24.782,0.0
-0.6736,-0.0781,0.0085,-24.8489,-80.7037,8.3847,2024-02-12 15:49:24.799,0.0
-0.562,-0.1697,0.1265,-24.0555,-71.0678,9.1171,2024-02-12 15:49:24.816,0.0
-0.5073,-0.2361,0.1929,-19.0048,-54.3442,2.9602,2024-02-12 15:49:24.832,0.0
-0.5479,-0.1733,0.1406,-14.0305,-44.7845,-4.982,2024-02-12 15:49:24.857,0.0
-0.4875,-0.124,-0.0811,-9.5596,-32.7606,-8.4152,2024-02-12 15:49:24.874,
-0.8267,-0.0891,0.1621,-7.2479,-9.9716,-11.2457,2024-02-12 15:49:24.889,0.0
-0.8894,-0.084,0.1221,-1.4496,-10.3226,-7.4005,2024-02-12 15:49:24.913,0.0
-0.8821,-0.1399,-0.0105,0.4196,-17.7689,-0.4272,2024-02-12 15:49:24.921,0.0
-0.8904,-0.0786,-0.0032,3.4637,-30.1361,3.4027,2024-02-12 15:49:24.946,0.0
-0.907,-0.0591,-0.0374,7.4692,-38.7039,8.873,2024-02-12 15:49:24.962,0.0
-0.8867,-0.0771,-0.0227,7.0953,-47.8363,8.0795,2024-02-12 15:49:24.978,0.0
-0.9546,-0.0481,0.0413,5.2109,-53.8101,5.4779,2024-02-12 15:49:24.994,0.0
-0.8086,-0.0879,0.0281,5.3406,-57.2052,4.9896,2024-02-12 15:49:25.019,0.0
-0.8032,-0.1326,0.0603,7.2784,-66.3452,0.2136,2024-02-12 15:49:25.037,0.0
-0.9072,-0.1167,0.1174,9.4604,-73.6084,-1.8311,2024-02-12 15:49:25.053,0.0
-0.9297,-0.0803,0.1626,8.667,-77.301,-5.6,2024-02-12 15:49:25.085,0.0
-0.9551,-0.0208,0.2036,4.4785,-77.301,-5.7755,2024-02-12 15:49:25.093,0.0
-0.9197,0.0156,0.2495,0.5112,-68.7943,-1.4038,2024-02-12 15:49:25.109,0.0
-0.9041,-0.145,0.3008,3.7613,-59.3109,4.2648,2024-02-12 15:49:25.118,0.0
-0.8984,-0.2158,0.365,9.758,-54.9774,3.6392,2024-02-12 15:49:25.142,0.0
-0.9604,-0.1057,0.4019,12.0392,-56.0303,2.8534,2024-02-12 15:49:25.159,0.0
-0.9397,0.0527,0.3545,7.7744,-62.1185,-1.7929,2024-02-12 15:49:25.176,0.0
-1.0767,-0.012,0.3623,-1.3733,-62.8204,0.6104,2024-02-12 15:49:25.209,0.0
-1.0549,-0.1409,0.4028,-3.9444,-63.3774,7.0724,2024-02-12 15:49:25.226,0.0
-1.0588,-0.1631,0.4136,-3.5553,-59.3109,11.3754,2024-02-12 15:49:25.234,
-1.0867,-0.1506,0.4541,-1.7242,-57.8461,11.5814,2024-02-12 15:49:25.259,0.0
-1.041,-0.106,0.4485,0.2213,-59.0057,11.2457,2024-02-12 15:49:25.267,0.0
-0.9573,-0.0583,0.4717,-0.2975,-50.0412,12.825,2024-02-12 15:49:25.292,0.0
-0.823,-0.1177,0.5464,-1.8082,-35.3546,9.285,2024-02-12 15:49:25.333,0.0
-0.9644,-0.1379,0.5073,1.709,-29.7318,8.0261,2024-02-12 15:49:25.333,0.0
-0.8162,-0.071,0.3689,4.0741,-44.3878,6.0959,2024-02-12 15:49:25.342,0.0
-0.812,-0.0701,0.397,1.5564,-43.335,3.4103,2024-02-12 15:49:25.358,0.0
-0.7827,-0.0828,0.5,3.1128,-51.239,5.6,2024-02-12 15:49:25.406,0.0
-0.7612,-0.0815,0.5591,6.6147,-50.4074,6.8283,2024-02-12 15:49:25.406,0.0
-0.7319,-0.0791,0.5933,8.5068,-44.9677,5.2872,2024-02-12 15:49:25.414,0.0
-0.7419,-0.041,0.6431,10.0708,-31.8146,2.7924,2024-02-12 15:49:25.430,0.0
-0.8176,-0.0405,0.636,11.4441,-26.3596,2.9068,2024-02-12 15:49:25.455,0.0
-0.8027,-0.0513,0.6138,12.3825,-31.9519,2.5711,2024-02-12 15:49:25.471,0.0
-0.751,-0.0137,0.6169,10.582,-37.1246,-1.0834,2024-02-12 15:49:25.487,0.0
-0.7747,0.0012,0.594,9.3002,-38.2004,-5.5771,2024-02-12 15:49:25.503,0.0
-0.8252,-0.0049,0.6294,6.7902,-32.3715,-5.8823,2024-02-12 15:49:25.535,0.0
-0.8301,-0.0093,0.6433,4.1504,-24.1394,-3.4485,2024-02-12 15:49:25.551,0.0
-0.7981,-0.0159,0.6426,2.0065,-18.7836,-2.3422,2024-02-12 15:49:25.568,0.0
-0.7651,-0.0288,0.636,0.3204,-18.158,-3.2883,2024-02-12 15:49:25.584,0.0
-0.7163,-0.0225,0.6245,-1.0605,-17.2729,-3.9444,2024-02-12 15:49:25.600,
-0.6653,-0.0305,0.6143,-1.2817,-12.8479,-5.2643,2024-02-12 15:49:25.624,0.0
-0.6616,-0.0386,0.604,-1.5335,-7.4768,-7.5455,2024-02-12 15:49:25.640,0.0
-0.6929,-0.0422,0.616,-1.6327,-2.2964,-8.667,2024-02-12 15:49:25.664,0.0
-0.6973,-0.0452,0.6296,-0.9918,1.7166,-7.5455,2024-02-12 15:49:25.672,0.0
-0.7053,-0.0408,0.6345,-1.0223,2.4109,-6.9275,2024-02-12 15:49:25.689,0.0
-0.7083,-0.0444,0.6301,-0.7401,2.5558,-7.0343,2024-02-12 15:49:25.713,0.0
-0.7297,-0.0593,0.6274,-0.4501,2.1286,-6.5536,2024-02-12 15:49:25.737,0.0
-0.7222,-0.0598,0.6404,-0.2518,3.4027,-5.7297,2024-02-12 15:49:25.749,0.0
-0.7107,-0.0637,0.6558,0.4578,4.6921,-4.3259,2024-02-12 15:49:25.777,0.0
-0.7036,-0.0579,0.6519,0.2899,5.2414,-3.6163,2024-02-12 15:49:25.802,0.0
-0.6965,-0.0808,0.6533,-1.3504,4.921,-4.4098,2024-02-12 15:49:25.802,0.0
-0.7078,-0.0803,0.6404,-2.2659,6.1646,-4.509,2024-02-12 15:49:25.819,0.0
-0.7314,-0.0664,0.6528,-1.297,7.2327,-3.212,2024-02-12 15:49:25.835,0.0
-0.7292,-0.0537,0.646,1.0605,8.7662,-0.7782,2024-02-12 15:49:25.859,0.0
-0.73,-0.0784,0.6155,4.2419,11.2457,2.4719,2024-02-12 15:49:25.875,0.0
-0.7219,-0.0676,0.5801,5.8823,6.1264,5.3329,2024-02-12 15:49:25.893,0.0
-0.668,-0.0439,0.5786,4.7226,1.6937,4.57,2024-02-12 15:49:25.909,0.0
-0.6448,-0.0286,0.6121,-0.7935,7.3471,-0.0992,2024-02-12 15:49:25.926,0.0
-0.6699,-0.02,0.6147,-6.4316,16.861,-4.0283,2024-02-12 15:49:25.951,0.0
-0.6929,-0.0369,0.5862,-10.9558,25.2838,-6.6833,2024-02-12 15:49:25.968,
-0.7319,-0.0403,0.5813,-12.2528,27.5421,-6.4774,2024-02-12 15:49:25.984,0.0
-0.751,-0.0447,0.6035,-9.9487,28.8773,-5.3558,2024-02-12 15:49:26.003,0.0
-0.7263,-0.0354,0.5945,-7.988,30.304,-3.1052,2024-02-12 15:49:26.019,0.0
-0.71,-0.009,0.5867,-7.4997,32.4707,-2.7084,2024-02-12 15:49:26.035,0.0
-0.6707,-0.0146,0.5876,-7.4844,35.5606,-2.3956,2024-02-12 15:49:26.052,0.0
-0.6794,-0.0078,0.571,-8.2626,42.2287,-4.9362,2024-02-12 15:49:26.077,0.0
-0.696,-0.0239,0.5625,-10.1089,46.7682,-6.3553,2024-02-12 15:49:26.093,0.0
-0.7791,-0.0642,0.5752,-10.6506,50.827,-6.0577,2024-02-12 15:49:26.110,0.0
-0.9226,-0.0879,0.5742,-10.0021,47.9889,-0.2899,2024-02-12 15:49:26.126,0.0
-0.9766,-0.0706,0.5291,-11.879,44.4336,-1.77,2024-02-12 15:49:26.151,0.0
-1.075,-0.0217,0.5107,-15.7623,39.1922,-7.7744,2024-02-12 15:49:26.176,0.0
-1.0737,-0.1323,0.5283,-21.2097,30.7236,-5.5695,2024-02-12 15:49:26.184,0.0
-1.1138,-0.1555,0.6326,-19.3634,37.9639,-6.4468,2024-02-12 15:49:26.209,0.0
-1.1311,-0.1533,0.6584,-12.8632,47.5006,-4.6997,2024-02-12 15:49:26.225,0.0
-1.0952,-0.1592,0.6091,-7.6294,57.0526,-0.4654,2024-02-12 15:49:26.257,0.0
-0.9702,-0.1055,0.5488,-6.2637,64.8499,-0.8698,2024-02-12 15:49:26.257,0.0
-0.9709,-0.0603,0.4697,-5.6305,68.573,-4.7836,2024-02-12 15:49:26.281,0.0
-0.9661,-0.0603,0.4287,-4.6692,68.3823,-6.3019,2024-02-12 15:49:26.297,0.0
-0.9229,-0.0669,0.354,-3.7689,66.7419,-6.4087,2024-02-12 15:49:26.313,0.0
-0.8447,-0.0928,0.3013,-3.685,61.4243,-9.9487,2024-02-12 15:49:26.330,
-0.8518,-0.1233,0.2844,-2.4414,53.1158,-14.061,2024-02-12 15:49:26.354,0.0
-0.884,-0.1213,0.2715,-0.1068,48.4695,-13.4964,2024-02-12 15:49:26.370,0.0
-0.8806,-0.1287,0.2295,2.1667,43.396,-13.0539,2024-02-12 15:49:26.387,0.0
-0.8716,-0.114,0.2004,4.1733,44.22,-14.9765,2024-02-12 15:49:26.411,0.0
-0.8928,-0.1086,0.1951,5.928,44.7464,-16.1972,2024-02-12 15:49:26.419,0.0
-0.8943,-0.1255,0.1633,8.11,44.075,-14.6179,2024-02-12 15:49:26.443,0.0
-0.8582,-0.1375,0.1277,8.2016,44.9982,-12.8098,2024-02-12 15:49:26.460,0.0
-0.8391,-0.1296,0.1091,7.4615,48.1339,-11.6272,2024-02-12 15:49:26.484,0.0
-0.8032,-0.1353,0.1035,7.2174,52.002,-12.1078,2024-02-12 15:49:26.508,0.0
-0.8169,-0.1372,0.0999,6.6299,54.0085,-13.4277,2024-02-12 15:49:26.517,0.0
-0.8267,-0.1196,0.1396,6.424,52.9709,-14.1525,2024-02-12 15:49:26.534,0.0
-0.8547,-0.116,0.1228,7.1259,46.936,-11.261,2024-02-12 15:49:26.551,0.0
-0.8291,-0.1072,0.0859,5.6686,36.8881,-7.2327,2024-02-12 15:49:26.567,0.0
-0.7854,-0.1194,0.061,2.2583,29.0756,-5.3406,2024-02-12 15:49:26.584,0.0
-0.7908,-0.1057,0.0901,-0.6256,22.9263,-3.952,2024-02-12 15:49:26.608,0.0
-0.7869,-0.1125,0.0999,-1.9379,17.4866,-3.6774,2024-02-12 15:49:26.625,0.0
-0.7781,-0.1104,0.1003,-2.6703,13.0615,-3.1662,2024-02-12 15:49:26.641,0.0
-0.772,-0.1265,0.0925,-4.2191,13.4506,-2.121,2024-02-12 15:49:26.658,0.0
-0.7649,-0.1355,0.1062,-4.2877,16.2735,-1.2741,2024-02-12 15:49:26.682,0.0
-0.7725,-0.1387,0.0693,-3.2883,17.9825,-0.7095,2024-02-12 15:49:26.724,
-0.7844,-0.1379,0.0435,-3.5782,18.5699,-0.4654,2024-02-12 15:49:26.724,0.0
-0.7986,-0.1309,0.0376,-4.8904,18.9362,1.2131,2024-02-12 15:49:26.732,0.0
-0.8091,-0.124,0.0505,-6.0654,22.4304,2.4338,2024-02-12 15:49:26.748,0.0
-0.8206,-0.1091,0.0229,-7.0877,29.4113,4.2572,2024-02-12 15:49:26.772,0.0
-0.8406,-0.0981,0.0051,-8.8196,32.9819,6.0883,2024-02-12 15:49:26.790,0.0
-0.8335,-0.1155,0.0251,-9.7961,26.1688,6.6757,2024-02-12 15:49:26.806,0.0
-0.8535,-0.1216,0.0635,-8.1406,18.3792,8.461,2024-02-12 15:49:26.822,0.0
-0.8242,-0.1255,0.0576,-5.722,12.9547,9.8953,2024-02-12 15:49:26.839,0.0
-0.8154,-0.1292,0.0547,-3.9673,5.8823,9.1553,2024-02-12 15:49:26.855,0.0
-0.8018,-0.1221,0.0408,-2.3499,-5.8746,9.7504,2024-02-12 15:49:26.879,0.0
-0.7625,-0.0989,0.0237,-2.5406,-16.4642,11.0245,2024-02-12 15:49:26.887,0.0
-0.7141,-0.0898,0.0588,-1.3428,-29.1672,12.8326,2024-02-12 15:49:26.912,0.0
-0.6726,-0.0774,0.0718,0.0,-32.6309,11.9629,2024-02-12 15:49:26.936,0.0
-0.6294,-0.1084,0.0842,-0.412,-29.0833,11.8561,2024-02-12 15:49:26.944,0.0
-0.6172,-0.1279,0.0271,2.9297,-22.9187,8.8425,2024-02-12 15:49:26.977,0.0
-0.6365,-0.1118,-0.012,3.4103,-20.1569,7.9727,2024-02-12 15:49:26.986,0.0
-0.6753,-0.0879,-0.0071,2.6932,-17.2882,3.5477,2024-02-12 15:49:27.008,0.0
-0.7539,-0.0857,0.0276,1.1673,-15.3046,0.3815,2024-02-12 15:49:27.024,0.0
-0.8091,-0.1216,0.0244,-0.351,-14.8315,-0.0763,2024-02-12 15:49:27.032,0.0
-0.8562,-0.1155,0.0552,1.6861,-23.6359,1.8005,2024-02-12 15:49:27.056,
-0.8828,-0.0774,-0.0173,4.631,-35.4538,5.7144,2024-02-12 15:49:27.072,0.0
-0.8054,-0.0806,-0.1089,-0.206,-57.1899,9.6436,2024-02-12 15:49:27.096,0.0
-0.7805,-0.0586,-0.031,-4.097,-69.9921,10.4599,2024-02-12 15:49:27.104,0.0
-0.7393,-0.1062,0.0552,-3.5019,-70.7779,11.3831,2024-02-12 15:49:27.129,0.0
-0.6755,-0.1204,0.051,1.7853,-53.3981,9.079,2024-02-12 15:49:27.150,0.0
-0.6919,-0.1077,0.0835,2.4033,-37.117,7.7438,2024-02-12 15:49:27.166,0.0
-0.7566,-0.1465,0.135,3.0975,-23.1171,6.8359,2024-02-12 15:49:27.183,0.0
-0.8025,-0.1206,0.1094,2.8534,-19.7144,5.8899,2024-02-12 15:49:27.205,0.0
-0.8438,-0.0623,0.0928,1.1673,-24.5056,5.4092,2024-02-12 15:49:27.221,0.0
-0.8562,-0.0564,0.1018,-0.6256,-34.0576,7.1869,2024-02-12 15:49:27.245,0.0
-0.8445,-0.0642,0.1255,-1.6861,-38.0859,10.1089,2024-02-12 15:49:27.262,0.0
-0.8159,-0.1028,0.1694,-3.4637,-33.165,10.643,2024-02-12 15:49:27.278,0.0
-0.8,-0.0991,0.1814,-4.3564,-21.9498,8.7433,2024-02-12 15:49:27.294,0.0
-0.801,-0.0769,0.1887,-4.1428,-10.6888,4.4708,2024-02-12 15:49:27.327,0.0
-0.8005,-0.083,0.1802,-3.3188,-6.3782,-0.8316,2024-02-12 15:49:27.335,0.0
-0.8005,-0.0767,0.1636,-1.6785,-5.928,-1.7166,2024-02-12 15:49:27.352,0.0
-0.7803,-0.0449,0.176,-2.3193,-0.351,-0.9995,2024-02-12 15:49:27.369,0.0
-0.7732,-0.0615,0.1587,-2.7924,8.9111,-1.915,2024-02-12 15:49:27.385,0.0
-0.7842,-0.061,0.1118,-3.7384,17.662,-3.3951,2024-02-12 15:49:27.401,0.0
-0.8279,-0.0447,0.1426,-5.6839,19.6228,-3.5553,2024-02-12 15:49:27.426,
-0.8555,-0.0269,0.2014,-3.9139,19.3024,-3.3493,2024-02-12 15:49:27.442,0.0
-0.8745,-0.0259,0.1755,-2.655,16.4337,-3.3417,2024-02-12 15:49:27.458,0.0
-0.8657,-0.0256,0.1096,-3.1586,12.7335,-1.9989,2024-02-12 15:49:27.474,0.0
-0.8293,-0.0427,0.0764,-4.9057,12.7335,-1.03,2024-02-12 15:49:27.499,0.0
-0.7869,-0.0627,0.0149,-6.9199,14.1525,-0.9003,2024-02-12 15:49:27.523,0.0
-0.7642,-0.063,-0.0283,-7.6752,16.655,-1.5411,2024-02-12 15:49:27.539,0.0
-0.7314,-0.0669,-0.0239,-10.9482,18.5928,-3.5095,2024-02-12 15:49:27.555,0.0
-0.7175,-0.0684,0.03,-14.3661,25.7645,-6.5994,2024-02-12 15:49:27.579,0.0
-0.7051,-0.0825,-0.0273,-13.4811,32.6614,-8.6288,2024-02-12 15:49:27.587,0.0
-0.6804,-0.0898,-0.0996,-13.4506,33.577,-8.2779,2024-02-12 15:49:27.612,0.0
-0.6028,-0.0664,-0.073,-15.5182,31.456,-10.7803,2024-02-12 15:49:27.628,0.0
-0.5532,0.0039,0.0654,-18.8065,38.4293,-13.9084,2024-02-12 15:49:27.644,0.0
-0.5413,0.033,0.1399,-19.1803,60.2646,-17.7765,2024-02-12 15:49:27.669,0.0
-0.573,-0.0381,0.0405,-15.7394,83.7097,-22.6593,2024-02-12 15:49:27.686,0.0
-0.6433,-0.0955,-0.0364,-13.298,94.8944,-22.0566,2024-02-12 15:49:27.694,0.0
-0.697,-0.092,-0.012,-9.5291,86.0596,-19.5999,2024-02-12 15:49:27.720,0.0
-0.7344,-0.0693,0.0632,-11.6348,70.4575,-20.2179,2024-02-12 15:49:27.736,0.0
-0.8665,-0.104,0.2024,-7.2021,59.8831,-19.165,2024-02-12 15:49:27.778,0.0
-0.8833,-0.0813,0.1047,4.5166,48.3932,-14.4806,2024-02-12 15:49:27.778,0.0
-0.8994,-0.1113,0.0249,10.3302,27.7939,-3.7003,2024-02-12 15:49:27.803,
-0.7849,-0.1599,0.0513,14.1373,4.6997,2.8992,2024-02-12 15:49:27.820,0.0
-0.678,-0.1306,0.1099,13.588,-8.934,-3.418,2024-02-12 15:49:27.828,0.0
-0.689,-0.0588,0.1411,8.6975,-6.7368,-11.7722,2024-02-12 15:49:27.844,0.0
-0.76,-0.0312,0.1343,9.697,4.6005,-14.9689,2024-02-12 15:49:27.860,0.0
-0.8403,-0.0552,0.1394,10.6201,-5.394,-7.5455,2024-02-12 15:49:27.885,0.0
-0.7522,-0.0713,0.0894,5.5237,-14.267,-3.8376,2024-02-12 15:49:27.901,0.0
-0.7102,-0.0586,0.0759,2.1896,-11.3983,-8.0261,2024-02-12 15:49:27.920,0.0
-0.8342,-0.0713,0.0496,-0.0839,-9.7733,-10.3073,2024-02-12 15:49:27.937,0.0
-1.0049,-0.1565,0.0945,0.3204,-28.2211,-0.1144,2024-02-12 15:49:27.952,0.0
-0.9199,-0.1819,0.0867,6.1569,-50.4227,11.6577,2024-02-12 15:49:27.978,0.0
-0.7786,-0.2009,0.0642,9.8877,-57.785,8.8196,2024-02-12 15:49:27.994,0.0
-0.7834,-0.123,0.1252,10.8871,-59.845,6.6681,2024-02-12 15:49:28.010,0.0
-0.7708,-0.0662,0.2825,13.7787,-62.2406,10.376,2024-02-12 15:49:28.035,0.0
-0.6895,-0.0803,0.1846,14.8163,-47.9279,10.6506,2024-02-12 15:49:28.060,0.0
-0.7405,-0.1057,0.1182,11.7874,-17.8452,2.1973,2024-02-12 15:49:28.068,0.0
-1.0107,-0.1257,0.0923,9.9335,-14.4806,-3.1433,2024-02-12 15:49:28.084,0.0
-1.0508,-0.0964,0.0872,11.3449,-35.6979,2.7542,2024-02-12 15:49:28.108,0.0
-0.9521,-0.0398,0.1123,13.1989,-73.8907,8.4076,2024-02-12 15:49:28.124,0.0
-0.9624,-0.0273,0.1931,12.8632,-89.7903,11.7645,2024-02-12 15:49:28.140,0.0
-0.9485,-0.1208,0.2932,13.7405,-92.0486,14.6179,2024-02-12 15:49:28.156,
-0.9321,-0.1174,0.2791,16.8304,-87.9593,16.1819,2024-02-12 15:49:28.180,0.0
-0.9517,-0.0493,0.2073,16.9754,-87.1887,16.2888,2024-02-12 15:49:28.197,0.0
-1.0002,-0.0366,0.2849,14.389,-95.7413,13.8855,2024-02-12 15:49:28.213,0.0
-1.0366,0.0493,0.3218,6.8054,-93.6813,14.7934,2024-02-12 15:49:28.229,0.0
-1.0667,-0.001,0.3943,0.0153,-90.6219,14.0076,2024-02-12 15:49:28.253,0.0
-1.0483,-0.1223,0.5024,-0.351,-88.4781,8.6212,2024-02-12 15:49:28.270,0.0
-1.0869,-0.2678,0.5513,4.6005,-87.2269,7.4234,2024-02-12 15:49:28.295,0.0
-1.0149,-0.2595,0.5352,5.6763,-81.6345,6.218,2024-02-12 15:49:28.303,0.0
-0.7886,-0.1111,0.5518,2.6016,-65.8722,3.5553,2024-02-12 15:49:28.319,0.0
-0.7715,-0.0439,0.6357,-0.7706,-48.912,-2.3651,2024-02-12 15:49:28.343,0.0
-0.8447,-0.0364,0.6243,-3.7231,-36.2778,-3.5629,2024-02-12 15:49:28.368,0.0
-0.8403,-0.0312,0.6353,-4.8294,-34.8511,-2.9144,2024-02-12 15:49:28.377,0.0
-0.8113,-0.0591,0.687,-0.0153,-40.3595,-3.3951,2024-02-12 15:49:28.393,0.0
-0.7932,-0.0737,0.7122,7.6675,-41.4505,-3.6469,2024-02-12 15:49:28.409,0.0
-0.7644,-0.0698,0.6685,11.4975,-36.9186,-1.8997,2024-02-12 15:49:28.433,0.0
-0.7974,-0.0447,0.6069,12.3596,-27.9236,0.2441,2024-02-12 15:49:28.449,0.0
-0.8374,-0.0376,0.5752,12.0316,-23.0942,1.3123,2024-02-12 15:49:28.465,0.0
-0.8425,-0.0583,0.5679,9.9258,-22.4991,0.7706,2024-02-12 15:49:28.482,0.0
-0.7925,-0.0593,0.5952,7.7133,-20.7214,1.0223,2024-02-12 15:49:28.503,0.0
-0.7454,-0.082,0.5972,6.4621,-13.7939,1.2054,2024-02-12 15:49:28.527,
-0.7642,-0.0994,0.5901,5.8594,-5.1727,1.5793,2024-02-12 15:49:28.535,0.0
-0.7598,-0.1108,0.5603,3.1509,1.2054,1.442,2024-02-12 15:49:28.568,0.0
-0.7021,-0.1028,0.575,-0.0305,-0.3586,1.2512,2024-02-12 15:49:28.576,0.0
-0.7078,-0.0796,0.6394,0.0534,3.3112,-0.2213,2024-02-12 15:49:28.601,0.0
-0.7639,-0.0754,0.6392,1.0757,7.6599,-0.6104,2024-02-12 15:49:28.610,0.0
-0.8218,-0.062,0.5818,0.7553,6.4545,0.9079,2024-02-12 15:49:28.635,0.0
-0.7751,-0.0347,0.5518,0.5569,-4.4861,2.6245,2024-02-12 15:49:28.652,0.0
-0.7432,-0.0024,0.5962,1.9836,-13.2599,5.043,2024-02-12 15:49:28.671,0.0
-0.7295,0.0139,0.6521,2.7161,-12.4512,5.9586,2024-02-12 15:49:28.711,0.0
-0.7114,0.0308,0.6406,3.0975,-11.8484,6.1493,2024-02-12 15:49:28.711,0.0
-0.719,0.0325,0.6365,3.2654,-12.4817,6.9427,2024-02-12 15:49:28.719,0.0
-0.72,0.0435,0.6323,2.2888,-14.0686,8.9874,2024-02-12 15:49:28.751,0.0
-0.6946,0.0378,0.6687,0.6561,-12.3901,9.8877,2024-02-12 15:49:28.759,0.0
-0.698,0.0039,0.6917,-0.0839,-9.7275,9.3231,2024-02-12 15:49:28.776,0.0
-0.6111,-0.02,0.6216,0.061,-4.1351,7.3318,2024-02-12 15:49:28.800,0.0
-0.7231,-0.0159,0.5928,-0.3586,-6.897,5.722,2024-02-12 15:49:28.817,0.0
-0.7324,-0.0166,0.5674,-1.7853,-11.3297,4.4785,2024-02-12 15:49:28.833,0.0
-0.7058,-0.0295,0.6045,-3.5095,-14.9994,3.273,2024-02-12 15:49:28.849,0.0
-0.6902,-0.03,0.6494,-3.8528,-13.6261,2.2583,2024-02-12 15:49:28.865,0.0
-0.6802,-0.009,0.6753,-2.1286,-9.4604,1.2817,2024-02-12 15:49:28.889,
-0.6875,0.002,0.6841,-1.5106,-6.7749,1.2894,2024-02-12 15:49:28.906,0.0
-0.6807,0.0105,0.677,-1.6403,-4.6234,0.7477,2024-02-12 15:49:28.922,0.0
-0.6692,0.0173,0.6897,-2.5177,-1.091,0.0,2024-02-12 15:49:28.938,0.0
-0.6719,0.0059,0.6763,-3.4714,2.4261,-0.267,2024-02-12 15:49:28.955,0.0
-0.6641,-0.0037,0.6799,-3.3264,4.3259,-1.152,2024-02-12 15:49:28.978,0.0
-0.6572,-0.0042,0.6738,-3.4866,5.722,-2.3117,2024-02-12 15:49:28.994,0.0
-0.6646,0.002,0.675,-2.8915,7.103,-3.1815,2024-02-12 15:49:29.010,0.0
-0.6873,-0.0039,0.6611,-2.7924,9.7809,-4.2953,2024-02-12 15:49:29.034,0.0
-0.6919,-0.0054,0.6467,-2.4643,12.7411,-4.3488,2024-02-12 15:49:29.063,0.0
-0.7039,-0.0115,0.6313,-2.1362,15.2512,-3.9902,2024-02-12 15:49:29.063,0.0
-0.7075,-0.0264,0.6274,-1.1749,18.1885,-3.3188,2024-02-12 15:49:29.079,0.0
-0.688,-0.0273,0.6194,-0.7706,21.431,-3.624,2024-02-12 15:49:29.104,0.0
-0.6746,-0.0308,0.6147,-1.7929,23.3765,-6.5384,2024-02-12 15:49:29.120,0.0
-0.7046,-0.0359,0.6108,-2.2278,24.91,-8.1024,2024-02-12 15:49:29.137,0.0
-0.718,-0.0315,0.5911,-2.8915,25.6882,-8.1863,2024-02-12 15:49:29.152,0.0
-0.6963,-0.0186,0.5989,-4.8599,26.268,-9.5978,2024-02-12 15:49:29.177,0.0
-0.7024,-0.0088,0.6089,-7.6065,30.5252,-10.3073,2024-02-12 15:49:29.193,0.0
-0.6836,-0.0098,0.6072,-11.3831,38.4216,-9.1629,2024-02-12 15:49:29.209,0.0
-0.6829,0.0007,0.6206,-15.4877,47.6532,-10.8109,2024-02-12 15:49:29.233,0.0
-0.7144,0.0193,0.6047,-17.4255,54.718,-11.9781,2024-02-12 15:49:29.250,
-0.7949,0.0415,0.6233,-18.9209,61.3251,-11.6425,2024-02-12 15:49:29.266,0.0
-0.8491,-0.0071,0.604,-18.8904,65.0482,-12.3978,2024-02-12 15:49:29.290,0.0
-0.9458,-0.0371,0.5642,-18.0359,62.4619,-21.9116,2024-02-12 15:49:29.307,0.0
-1.0938,-0.0032,0.6094,-15.1443,47.1725,-22.6593,2024-02-12 15:49:29.315,0.0
-1.0657,-0.0688,0.5815,-15.2817,36.0718,-14.3356,2024-02-12 15:49:29.340,0.0
-1.1123,-0.1389,0.7073,-11.6959,30.6015,-10.025,2024-02-12 15:49:29.364,0.0
-1.0176,-0.1055,0.6799,-9.14,26.2604,-9.6741,2024-02-12 15:49:29.380,0.0
-0.9878,-0.0898,0.6753,-5.2109,30.1514,-7.2708,2024-02-12 15:49:29.388,0.0
-0.9204,-0.0916,0.5977,-3.8071,41.4047,-7.8201,2024-02-12 15:49:29.412,0.0
-0.9075,-0.0847,0.554,-4.0436,50.4608,-9.4376,2024-02-12 15:49:29.436,0.0
-0.9221,-0.1113,0.5037,-3.6926,55.9845,-10.0632,2024-02-12 15:49:29.444,0.0
-0.9209,-0.1226,0.4602,-2.9678,57.6477,-9.5825,2024-02-12 15:49:29.460,0.0
-0.855,-0.1272,0.4045,-1.3962,61.2259,-10.17,2024-02-12 15:49:29.485,0.0
-0.8694,-0.1445,0.3638,-1.1292,64.6744,-12.4817,2024-02-12 15:49:29.501,0.0
-0.9004,-0.1521,0.3159,-1.358,67.9703,-14.389,2024-02-12 15:49:29.525,0.0
-0.9192,-0.1411,0.2908,-2.0065,69.2291,-17.0975,2024-02-12 15:49:29.541,0.0
-0.9683,-0.1238,0.2986,-1.5945,66.4368,-14.4119,2024-02-12 15:49:29.557,0.0
-0.9773,-0.1035,0.2517,-1.2436,64.415,-12.0926,2024-02-12 15:49:29.582,0.0
-0.98,-0.1289,0.2229,-2.0523,62.6678,-11.5738,2024-02-12 15:49:29.590,0.0
-0.9753,-0.1306,0.1802,-4.4785,60.6461,-13.1836,2024-02-12 15:49:29.614,
-0.9089,-0.1372,0.1384,-6.1951,61.1267,-13.0539,2024-02-12 15:49:29.630,0.0
-0.8557,-0.155,0.1436,-6.4926,63.8351,-12.1765,2024-02-12 15:49:29.647,0.0
-0.8726,-0.1611,0.1433,-7.1335,66.3376,-12.3138,2024-02-12 15:49:29.671,0.0
-0.8755,-0.1543,0.1514,-8.7357,58.2581,-12.6495,2024-02-12 15:49:29.687,0.0
-0.8242,-0.1182,0.1284,-11.2457,42.5644,-11.6653,2024-02-12 15:49:29.703,0.0
-0.7588,-0.105,0.1184,-13.8779,31.4102,-10.7574,2024-02-12 15:49:29.728,0.0
-0.7446,-0.1011,0.1125,-15.6708,26.0696,-10.2234,2024-02-12 15:49:29.744,0.0
-0.7263,-0.094,0.1145,-17.9367,25.5432,-9.9869,2024-02-12 15:49:29.752,0.0
-0.7446,-0.115,0.1392,-17.5934,29.2816,-7.9269,2024-02-12 15:49:29.785,0.0
-0.7849,-0.1484,0.1387,-16.6473,30.7388,-5.2338,2024-02-12 15:49:29.810,0.0
-0.8062,-0.1594,0.1462,-16.1133,29.4189,-3.9825,2024-02-12 15:49:29.827,0.0
-0.8047,-0.1633,0.1406,-14.061,26.5961,-1.2589,2024-02-12 15:49:29.843,0.0
-0.7971,-0.1672,0.1091,-11.5738,22.9568,1.8234,2024-02-12 15:49:29.851,0.0
-0.7988,-0.147,0.0735,-10.3149,18.5394,3.1662,2024-02-12 15:49:29.867,0.0
-0.8174,-0.1426,0.0833,-9.9487,17.3187,5.0507,2024-02-12 15:49:29.889,0.0
-0.8091,-0.1182,0.0627,-9.613,15.3427,6.2027,2024-02-12 15:49:29.905,0.0
-0.8003,-0.1196,0.033,-9.285,12.2299,7.4615,2024-02-12 15:49:29.921,0.0
-0.75,-0.1072,0.0461,-8.5068,15.3961,6.9733,2024-02-12 15:49:29.945,0.0
-0.7175,-0.1033,0.0266,-8.4152,21.431,5.9814,2024-02-12 15:49:29.961,0.0
-0.7385,-0.0842,0.0125,-10.0174,23.14,5.6076,2024-02-12 15:49:29.979,
-0.7207,-0.0857,-0.01,-12.9166,19.0659,5.7449,2024-02-12 15:49:29.997,0.0
-0.7136,-0.0945,0.0261,-14.1602,10.8414,5.455,2024-02-12 15:49:30.013,0.0
-0.7271,-0.1184,0.0554,-11.2228,4.7379,4.6616,2024-02-12 15:49:30.037,0.0
-0.7437,-0.1248,0.0239,-9.2468,-1.6861,4.9438,2024-02-12 15:49:30.053,0.0
-0.719,-0.0989,0.0017,-8.7891,-13.8855,7.8812,2024-02-12 15:49:30.070,0.0
-0.6782,-0.1028,0.0127,-8.5831,-27.4048,8.5526,2024-02-12 15:49:30.086,0.0
-0.6626,-0.1006,0.0356,-8.0719,-30.3802,8.0109,2024-02-12 15:49:30.102,0.0
-0.6389,-0.1057,0.0225,-5.5161,-25.1389,6.9962,2024-02-12 15:49:30.127,0.0
-0.644,-0.1042,-0.0242,-3.7308,-20.9198,3.5782,2024-02-12 15:49:30.144,0.0
-0.6865,-0.1079,-0.0103,-4.7455,-21.4005,0.1221,2024-02-12 15:49:30.161,0.0
-0.7673,-0.1194,0.021,-3.2883,-26.9012,1.1597,2024-02-12 15:49:30.178,0.0
-0.7993,-0.1338,-0.0242,-0.0687,-30.8228,3.0212,2024-02-12 15:49:30.194,0.0
-0.7742,-0.1228,-0.0879,2.8076,-35.5682,3.1738,2024-02-12 15:49:30.219,0.0
-0.7673,-0.1362,-0.0315,1.8387,-41.3437,1.8463,2024-02-12 15:49:30.243,0.0
-0.7732,-0.1323,0.0295,3.212,-40.9546,2.0752,2024-02-12 15:49:30.251,0.0
-0.7483,-0.1086,-0.0181,5.7983,-35.8353,3.8071,2024-02-12 15:49:30.267,0.0
-0.7146,-0.082,-0.0835,5.1193,-31.0059,5.5923,2024-02-12 15:49:30.292,0.0
-0.6873,-0.0781,-0.0459,3.7308,-17.0898,3.4409,2024-02-12 15:49:30.303,0.0
-0.7312,-0.0872,-0.0308,2.6016,2.2202,0.4959,2024-02-12 15:49:30.320,0.0
-0.7983,-0.0942,-0.0259,3.3493,12.2986,-1.1597,2024-02-12 15:49:30.344,
-0.9158,-0.0349,-0.0034,4.2343,13.1531,-2.3956,2024-02-12 15:49:30.360,0.0
-0.9946,-0.0298,0.012,2.2278,-3.0365,2.9602,2024-02-12 15:49:30.377,0.0
-0.9287,-0.0906,0.0117,0.4425,-26.329,5.9586,2024-02-12 15:49:30.402,0.0
-0.8547,-0.093,0.0339,1.0681,-38.063,6.7902,2024-02-12 15:49:30.411,0.0
-0.7759,-0.0823,0.0596,0.2747,-34.0652,3.9978,2024-02-12 15:49:30.428,0.0
-0.7695,-0.0859,0.0833,0.6866,-20.0119,1.9836,2024-02-12 15:49:30.453,0.0
-0.7698,-0.0937,0.063,2.9526,-8.1635,2.388,2024-02-12 15:49:30.469,0.0
-0.7756,-0.0874,0.0608,4.921,1.9379,0.6485,2024-02-12 15:49:30.485,0.0
-0.8137,-0.0918,0.1023,6.0959,9.1705,-1.6632,2024-02-12 15:49:30.503,0.0
-0.8628,-0.1072,0.1121,7.4387,6.9427,-2.6398,2024-02-12 15:49:30.527,0.0
-0.8374,-0.093,0.042,6.1493,3.2425,-0.9689,2024-02-12 15:49:30.543,0.0
-0.7974,-0.0645,0.0261,2.5101,5.2261,-2.1744,2024-02-12 15:49:30.559,0.0
-0.814,-0.0559,0.0425,0.5646,10.7193,-2.6855,2024-02-12 15:49:30.583,0.0
-0.8425,-0.0505,0.0427,-1.3733,13.382,-3.0518,2024-02-12 15:49:30.599,0.0
-0.8596,-0.0515,0.0557,-3.2959,13.6642,-3.1357,2024-02-12 15:49:30.615,0.0
-0.8491,-0.0706,0.0486,-5.4932,8.9188,-3.2272,2024-02-12 15:49:30.631,0.0
-0.8323,-0.1108,0.0146,-6.4011,6.5613,-3.8223,2024-02-12 15:49:30.656,0.0
-0.8086,-0.1338,-0.0613,-7.6218,7.8888,-4.7226,2024-02-12 15:49:30.664,0.0
-0.7852,-0.1265,-0.0818,-8.3923,11.3831,-5.9204,2024-02-12 15:49:30.697,0.0
-0.7788,-0.1309,-0.0425,-2.3193,16.5253,-5.5618,2024-02-12 15:49:30.714,
-0.7534,-0.094,-0.1003,5.2795,21.0648,-4.0359,2024-02-12 15:49:30.730,0.0
-0.7229,-0.0591,-0.1785,2.9221,20.7138,-4.2725,2024-02-12 15:49:30.747,0.0
-0.7012,-0.0771,-0.1548,0.1907,17.1814,-5.5008,2024-02-12 15:49:30.763,0.0
-0.6851,-0.1143,-0.127,-1.2512,17.5323,-3.1815,2024-02-12 15:49:30.787,0.0
-0.624,-0.1667,-0.0569,-0.9537,21.8506,-2.2583,2024-02-12 15:49:30.803,0.0
-0.6106,-0.1472,0.0044,4.57,32.6538,-3.5782,2024-02-12 15:49:30.819,0.0
-0.5942,-0.0349,-0.0574,4.1351,44.014,-5.1956,2024-02-12 15:49:30.844,0.0
-0.5852,-0.0266,-0.0693,-2.4109,47.3862,-7.515,2024-02-12 15:49:30.860,0.0
-0.5896,-0.0498,-0.0693,0.5341,45.1889,-9.1019,2024-02-12 15:49:30.884,0.0
-0.5779,-0.0544,-0.0435,0.145,39.3372,-9.8267,2024-02-12 15:49:30.892,0.0
-0.6072,-0.0552,0.0461,0.3662,39.2532,-10.9558,2024-02-12 15:49:30.908,0.0
-0.614,-0.158,0.0745,5.6,46.8292,-12.7716,2024-02-12 15:49:30.932,0.0
-0.7041,-0.1733,0.0056,7.3547,47.0657,-15.8691,2024-02-12 15:49:30.948,0.0
-0.8198,-0.1221,0.0771,6.8588,36.4914,-21.4462,2024-02-12 15:49:30.964,0.0
-0.8892,0.033,0.0698,8.4381,20.1187,-25.1846,2024-02-12 15:49:30.989,0.0
-1.0007,-0.0015,0.0918,5.9204,2.4719,-18.5623,2024-02-12 15:49:31.006,0.0
-0.9504,-0.1345,0.106,9.4299,-16.4413,-8.1482,2024-02-12 15:49:31.041,0.0
-0.8457,-0.2253,0.1331,10.8032,-22.2244,-1.8845,2024-02-12 15:49:31.041,0.0
-0.6165,-0.2754,0.1782,11.8256,-6.9275,-7.843,2024-02-12 15:49:31.050,0.0
-0.7029,-0.1487,0.1812,16.8152,-6.0425,-10.849,2024-02-12 15:49:31.074,
-0.7187,-0.0713,0.0806,13.031,9.3689,-8.9264,2024-02-12 15:49:31.098,0.0
-0.6475,-0.0405,0.0261,8.5526,29.8157,-11.7874,2024-02-12 15:49:31.106,0.0
-0.7959,0.0173,0.0312,-1.5182,31.8832,-9.2545,2024-02-12 15:49:31.130,0.0
-0.8904,-0.1184,0.0337,-4.158,14.7247,-2.5864,2024-02-12 15:49:31.154,0.0
-0.9658,-0.1128,0.0669,0.6256,-8.2855,-1.1444,2024-02-12 15:49:31.162,0.0
-0.9824,-0.0962,0.03,4.0359,-21.08,11.4822,2024-02-12 15:49:31.178,0.0
-0.8853,-0.1763,0.0999,2.3651,-19.0048,21.4157,2024-02-12 15:49:31.202,0.0
-0.6973,-0.1096,0.0376,-1.7776,-8.6212,13.8702,2024-02-12 15:49:31.223,0.0
-0.8035,-0.0132,0.0781,-1.3733,-25.8942,10.7651,2024-02-12 15:49:31.239,0.0
-0.8064,-0.0413,0.0645,4.9057,-59.9213,6.7902,2024-02-12 15:49:31.263,0.0
-0.8784,-0.1021,0.0449,9.758,-70.7932,12.3062,2024-02-12 15:49:31.279,0.0
-0.8904,-0.2241,0.1482,14.6637,-72.0673,17.2272,2024-02-12 15:49:31.295,0.0
-0.8613,-0.2725,0.1848,16.5939,-64.3387,16.0599,2024-02-12 15:49:31.320,0.0
-0.8652,-0.1716,0.123,14.679,-54.2297,4.0741,2024-02-12 15:49:31.339,0.0
-0.8789,-0.0464,0.0107,14.2288,-51.3687,-3.9291,2024-02-12 15:49:31.347,0.0
-1.0017,-0.0583,0.0198,12.6877,-56.9534,-2.3117,2024-02-12 15:49:31.371,0.0
-1.1184,-0.1521,0.1365,9.9716,-72.937,10.5591,2024-02-12 15:49:31.395,0.0
-1.0002,-0.1697,0.281,7.7972,-71.2128,17.3492,2024-02-12 15:49:31.404,0.0
-1.0215,-0.1062,0.3071,7.6828,-66.3223,11.1084,2024-02-12 15:49:31.428,0.0
-1.2151,-0.0054,0.2573,3.9902,-73.9975,9.8114,2024-02-12 15:49:31.436,
-1.2354,-0.1428,0.3115,-3.624,-76.622,18.013,2024-02-12 15:49:31.460,0.0
-1.1448,-0.2227,0.4238,-4.9286,-79.1245,19.5694,2024-02-12 15:49:31.485,0.0
-0.991,-0.1716,0.4739,-3.4485,-72.464,17.2577,2024-02-12 15:49:31.502,0.0
-0.9382,-0.0649,0.4297,-3.9978,-53.4897,12.1078,2024-02-12 15:49:31.510,0.0
-0.9785,-0.0103,0.3972,-2.8,-48.3932,3.7766,2024-02-12 15:49:31.534,0.0
-0.9285,-0.0701,0.3909,1.9608,-52.4139,4.3335,2024-02-12 15:49:31.550,0.0
-0.7825,-0.0911,0.4451,3.5095,-52.063,3.7155,2024-02-12 15:49:31.567,0.0
-0.842,-0.0994,0.5356,4.0588,-42.8085,4.4174,2024-02-12 15:49:31.591,0.0
-0.8699,-0.0576,0.5317,6.7673,-36.2396,7.3395,2024-02-12 15:49:31.640,0.0
-0.8374,-0.0767,0.4841,7.8049,-38.4064,7.3929,2024-02-12 15:49:31.649,0.0
-0.7854,-0.0845,0.4358,6.8817,-38.0249,5.4016,2024-02-12 15:49:31.649,0.0
-0.7925,-0.0806,0.4451,3.8757,-33.371,4.4098,2024-02-12 15:49:31.657,0.0
-0.7593,-0.083,0.4895,2.1667,-24.3149,2.8534,2024-02-12 15:49:31.673,0.0
-0.7837,-0.1001,0.501,2.739,-15.6784,0.8011,2024-02-12 15:49:31.698,0.0
-0.7849,-0.0696,0.4807,4.5471,-14.4424,-0.5646,2024-02-12 15:49:31.714,0.0
-0.8083,-0.0388,0.4546,5.7373,-17.2119,-1.6251,2024-02-12 15:49:31.749,0.0
-0.7788,-0.02,0.5017,5.394,-18.7759,-1.7853,2024-02-12 15:49:31.757,0.0
-0.7659,-0.0142,0.5442,4.509,-13.1531,-1.1215,2024-02-12 15:49:31.765,0.0
-0.8066,-0.0059,0.5645,4.4861,-3.1128,0.351,2024-02-12 15:49:31.782,0.0
-0.8545,-0.0269,0.4985,4.6539,-3.6697,1.2589,2024-02-12 15:49:31.807,
-0.8313,-0.0342,0.4768,4.1046,-13.7939,2.3956,2024-02-12 15:49:31.815,0.0
-0.7722,-0.0593,0.5288,3.4485,-18.6005,1.7853,2024-02-12 15:49:31.839,0.0
-0.7251,-0.043,0.5842,3.9215,-15.1749,-0.351,2024-02-12 15:49:31.855,0.0
-0.74,-0.0437,0.5593,4.4708,-9.6588,-2.1667,2024-02-12 15:49:31.879,0.0
-0.7791,-0.0576,0.5242,4.2801,-8.8806,-1.9684,2024-02-12 15:49:31.895,0.0
-0.7542,-0.032,0.5142,3.9749,-11.6119,-2.1362,2024-02-12 15:49:31.912,0.0
-0.7244,-0.0356,0.5366,4.0207,-11.4136,-3.5858,2024-02-12 15:49:31.936,0.0
-0.7014,-0.0315,0.5886,4.1962,-4.7836,-5.249,2024-02-12 15:49:31.952,0.0
-0.7554,-0.0398,0.6052,3.8757,4.0741,-5.9891,2024-02-12 15:49:31.969,0.0
-0.6829,-0.0894,0.5317,4.3716,12.4435,-7.4005,2024-02-12 15:49:31.985,0.0
-0.7698,-0.0535,0.4939,4.3182,-1.9455,-7.0572,2024-02-12 15:49:32.009,0.0
-0.7485,-0.0479,0.5107,4.6463,-3.8452,-7.8964,2024-02-12 15:49:32.035,0.0
-0.7297,-0.043,0.5403,4.0436,0.885,-9.2163,2024-02-12 15:49:32.042,0.0
-0.7527,-0.0435,0.5168,2.8458,5.6152,-10.3989,2024-02-12 15:49:32.058,0.0
-0.7676,-0.0215,0.5059,1.8463,5.4321,-9.0714,2024-02-12 15:49:32.082,0.0
-0.7749,0.0076,0.5208,2.0294,2.1362,-6.4621,2024-02-12 15:49:32.098,0.0
-0.7544,-0.0059,0.5195,1.1978,0.2289,-3.7003,2024-02-12 15:49:32.114,0.0
-0.6921,-0.0293,0.5937,-0.2899,1.3199,-2.8152,2024-02-12 15:49:32.138,0.0
-0.699,-0.0459,0.6353,-0.3357,11.5204,-4.2343,2024-02-12 15:49:32.154,0.0
-0.75,-0.0715,0.5933,-0.7782,21.9345,-5.1041,2024-02-12 15:49:32.170,
-0.7944,-0.0864,0.4915,-1.8387,19.0277,-5.2643,2024-02-12 15:49:32.186,0.0
-0.7834,-0.0957,0.4373,-4.6539,11.6501,-4.5395,2024-02-12 15:49:32.202,0.0
-0.7383,-0.0979,0.4712,-7.2327,9.4452,-5.188,2024-02-12 15:49:32.226,0.0
-0.728,-0.0962,0.4971,-7.103,11.4136,-7.7057,2024-02-12 15:49:32.242,0.0
-0.7771,-0.0652,0.519,-5.3558,14.0152,-9.5825,2024-02-12 15:49:32.258,0.0
-0.8147,-0.0593,0.4924,-5.1041,14.0076,-8.1787,2024-02-12 15:49:32.282,0.0
-0.804,-0.0435,0.4768,-5.9662,10.8871,-6.2332,2024-02-12 15:49:32.306,0.0
-0.7749,-0.0425,0.4939,-6.012,9.2316,-5.3406,2024-02-12 15:49:32.314,0.0
-0.6797,-0.04,0.5491,-5.8746,16.5863,-4.5242,2024-02-12 15:49:32.330,0.0
-0.6628,-0.0608,0.5698,-4.6692,35.8887,-6.7215,2024-02-12 15:49:32.354,0.0
-0.7747,-0.0854,0.5105,-4.2038,56.4957,-9.5139,2024-02-12 15:49:32.378,0.0
-0.8757,-0.0823,0.4617,-5.1346,58.5175,-8.606,2024-02-12 15:49:32.386,0.0
-0.9055,-0.0322,0.4082,-7.7057,45.6314,-7.6141,2024-02-12 15:49:32.402,0.0
-0.8992,-0.0305,0.4333,-11.0016,29.4495,-4.1199,2024-02-12 15:49:32.419,0.0
-0.8828,-0.0325,0.4272,-13.8931,18.4174,-3.1967,2024-02-12 15:49:32.444,0.0
-0.9165,-0.0447,0.4587,-15.0146,11.2228,-7.5912,2024-02-12 15:49:32.461,0.0
-0.9946,-0.0884,0.5642,-16.0217,5.2719,-11.5738,2024-02-12 15:49:32.469,0.0
-0.9197,-0.1055,0.5339,-16.9373,3.9825,-11.6501,2024-02-12 15:49:32.494,0.0
-0.915,-0.1453,0.5403,-18.3868,9.6207,-12.207,2024-02-12 15:49:32.511,0.0
-0.863,-0.1443,0.5281,-19.0125,25.3143,-17.3492,2024-02-12 15:49:32.528,
-0.9956,-0.1357,0.542,-16.7618,45.5322,-16.571,2024-02-12 15:49:32.544,0.0
-1.0427,-0.1482,0.437,-15.5182,49.0341,-14.5874,2024-02-12 15:49:32.561,0.0
-1.0159,-0.1238,0.4141,-13.1302,44.6396,-13.8168,2024-02-12 15:49:32.586,0.0
-1.0083,-0.1162,0.3682,-10.025,44.0063,-12.3138,2024-02-12 15:49:32.599,0.0
-0.9983,-0.1462,0.3206,-9.6893,46.1121,-9.9945,2024-02-12 15:49:32.623,0.0
-0.9783,-0.1521,0.3259,-9.9106,50.9491,-8.4305,2024-02-12 15:49:32.639,0.0
-0.9568,-0.1509,0.3098,-8.4229,51.8341,-6.2485,2024-02-12 15:49:32.664,0.0
-0.9736,-0.1599,0.3057,-5.8975,46.1426,-5.9204,2024-02-12 15:49:32.672,0.0
-0.9641,-0.1638,0.2944,-4.776,37.178,-5.0354,2024-02-12 15:49:32.688,0.0
-0.9172,-0.1301,0.3281,-3.5324,32.0816,-1.8539,2024-02-12 15:49:32.713,0.0
-0.7949,-0.0945,0.3425,-3.5095,39.0854,-3.212,2024-02-12 15:49:32.730,0.0
-0.8818,-0.1326,0.3315,-4.1962,55.8167,-7.1945,2024-02-12 15:49:32.754,0.0
-0.9636,-0.1577,0.2498,-4.4403,62.439,-6.5079,2024-02-12 15:49:32.770,0.0
-0.927,-0.1848,0.1765,-3.8528,56.5262,-4.8065,2024-02-12 15:49:32.786,0.0
-0.8743,-0.1826,0.1106,-4.0817,46.3715,-4.4785,2024-02-12 15:49:32.802,0.0
-0.8477,-0.1653,0.1025,-4.5242,36.6287,-4.3411,2024-02-12 15:49:32.827,0.0
-0.8525,-0.1636,0.1152,-5.0659,29.6936,-3.2425,2024-02-12 15:49:32.835,0.0
-0.8423,-0.1707,0.136,-5.2032,22.6593,-3.3569,2024-02-12 15:49:32.860,0.0
-0.8442,-0.1462,0.179,-6.1035,15.9683,-4.5929,2024-02-12 15:49:32.876,0.0
-0.8491,-0.1294,0.1958,-7.2937,9.0942,-5.8212,2024-02-12 15:49:32.901,
-0.8149,-0.1184,0.197,-7.5989,3.3798,-4.097,2024-02-12 15:49:32.909,0.0
-0.7969,-0.1096,0.1814,-8.8425,3.273,-1.9531,2024-02-12 15:49:32.933,0.0
-0.8027,-0.1079,0.1953,-11.1923,5.8441,-0.824,2024-02-12 15:49:32.949,0.0
-0.7759,-0.1299,0.1943,-12.7029,9.0561,-0.9308,2024-02-12 15:49:32.965,0.0
-0.8076,-0.155,0.2192,-12.3367,13.2828,-0.8469,2024-02-12 15:49:32.981,0.0
-0.7837,-0.1606,0.1926,-12.0468,19.6457,-0.6485,2024-02-12 15:49:33.008,0.0
-0.782,-0.1748,0.197,-11.7798,21.4462,-0.7248,2024-02-12 15:49:33.024,0.0
-0.7756,-0.1594,0.1729,-11.4288,23.1934,-0.2441,2024-02-12 15:49:33.033,0.0
-0.7971,-0.1423,0.1462,-10.5896,23.1552,2.4261,2024-02-12 15:49:33.059,0.0
-0.7856,-0.1138,0.1392,-11.4365,23.7274,5.1117,2024-02-12 15:49:33.082,0.0
-0.7756,-0.0977,0.1289,-13.0997,25.7874,8.6746,2024-02-12 15:49:33.090,0.0
-0.7632,-0.1028,0.1074,-12.4969,29.0222,10.3149,2024-02-12 15:49:33.106,0.0
-0.7825,-0.1011,0.0771,-12.5351,31.8146,10.3226,2024-02-12 15:49:33.130,0.0
-0.8076,-0.1072,0.0479,-12.7106,31.4102,10.1776,2024-02-12 15:49:33.146,0.0
-0.7971,-0.1233,0.0518,-11.0779,25.9476,7.7591,2024-02-12 15:49:33.170,0.0
-0.8306,-0.1138,0.0518,-8.5526,17.0746,7.0496,2024-02-12 15:49:33.187,0.0
-0.8044,-0.0918,0.0388,-7.6904,6.8207,10.5286,2024-02-12 15:49:33.203,0.0
-0.7476,-0.0923,0.0525,-4.0817,-11.8484,11.8256,2024-02-12 15:49:33.228,0.0
-0.7214,-0.0891,0.0181,-1.2054,-21.1487,11.6196,2024-02-12 15:49:33.236,0.0
-0.6755,-0.0969,0.03,-1.8539,-27.0996,12.6114,2024-02-12 15:49:33.261,
-0.5815,-0.092,0.0715,-0.1984,-35.6064,12.1231,2024-02-12 15:49:33.278,0.0
-0.5566,-0.0881,0.0212,1.2894,-34.9808,9.5901,2024-02-12 15:49:33.302,0.0
-0.5513,-0.0854,-0.0244,1.6174,-25.6042,7.309,2024-02-12 15:49:33.312,0.0
-0.5686,-0.083,-0.0752,0.8316,-14.9918,3.9597,2024-02-12 15:49:33.336,0.0
-0.6335,-0.0781,-0.0491,-0.8926,-12.3367,2.3727,2024-02-12 15:49:33.353,0.0
-0.6948,-0.0754,0.0034,-2.7695,-10.3531,1.3351,2024-02-12 15:49:33.369,0.0
-0.7505,-0.0671,0.0266,-4.1046,-5.0659,0.267,2024-02-12 15:49:33.386,0.0
-0.7749,-0.0637,-0.0264,-6.5231,-2.7237,-2.2736,2024-02-12 15:49:33.402,0.0
-0.7979,-0.0457,-0.0498,-8.8501,-5.3482,-4.5624,2024-02-12 15:49:33.427,0.0
-0.8123,-0.0708,-0.0317,-10.6354,-5.7068,-5.2032,2024-02-12 15:49:33.443,0.0
-0.8262,-0.1086,-0.0596,-10.6735,-1.9302,-4.1504,2024-02-12 15:49:33.459,0.0
-0.8098,-0.1367,-0.0679,-10.9558,-4.1504,-4.1733,2024-02-12 15:49:33.476,0.0
-0.7769,-0.178,-0.0322,-10.6049,-4.7531,-3.1815,2024-02-12 15:49:33.492,0.0
-0.7529,-0.209,-0.0452,-7.3166,3.3417,-3.0823,2024-02-12 15:49:33.516,0.0
-0.7493,-0.2073,-0.0876,-2.861,17.2958,-4.3411,2024-02-12 15:49:33.532,0.0
-0.8137,-0.1628,-0.0305,0.679,28.4271,-5.1193,2024-02-12 15:49:33.553,0.0
-0.8938,-0.1592,0.021,4.3259,29.1595,-3.8986,2024-02-12 15:49:33.569,0.0
-0.8962,-0.1431,-0.0093,5.2872,13.3362,-1.1368,2024-02-12 15:49:33.585,0.0
-0.8625,-0.1299,-0.0078,5.5542,-1.2817,0.0839,2024-02-12 15:49:33.601,0.0
-0.8411,-0.1094,0.041,6.9504,2.0828,0.3281,2024-02-12 15:49:33.624,
-0.8625,-0.0979,0.0579,9.4833,9.2545,0.0992,2024-02-12 15:49:33.648,0.0
-0.8547,-0.1108,0.0337,10.6201,5.5084,-1.3046,2024-02-12 15:49:33.664,0.0
-0.8333,-0.1111,-0.0024,10.4599,-0.1678,-0.7401,2024-02-12 15:49:33.688,0.0
-0.7859,-0.0933,0.0046,10.788,2.1362,-0.7248,2024-02-12 15:49:33.696,0.0
-0.78,-0.0881,0.0012,9.9945,9.9716,-2.6245,2024-02-12 15:49:33.721,0.0
-0.8,-0.0974,0.0,8.7357,16.2354,-4.1275,2024-02-12 15:49:33.737,0.0
-0.8315,-0.1094,-0.0081,8.0872,20.0729,-4.2267,2024-02-12 15:49:33.753,0.0
-0.8499,-0.1145,-0.0444,7.0572,20.6985,-3.4714,2024-02-12 15:49:33.777,0.0
-0.8525,-0.0955,-0.052,4.7913,13.3057,-2.9221,2024-02-12 15:49:33.794,0.0
-0.854,-0.095,-0.051,3.7918,7.1793,-1.9073,2024-02-12 15:49:33.810,0.0
-0.8159,-0.094,-0.0735,2.0981,4.2038,-0.8163,2024-02-12 15:49:33.826,0.0
-0.7854,-0.0964,-0.0793,0.0153,6.2332,-2.1591,2024-02-12 15:49:33.850,0.0
-0.7717,-0.1099,-0.1082,-1.4343,8.7967,-2.8152,2024-02-12 15:49:33.866,0.0
-0.7559,-0.124,-0.0981,-0.1755,10.5362,-3.4256,2024-02-12 15:49:33.890,0.0
-0.7397,-0.1094,-0.0937,-0.7706,14.2746,-4.2419,2024-02-12 15:49:33.898,0.0
-0.7334,-0.1101,-0.0605,-6.8817,21.019,-7.8354,2024-02-12 15:49:33.914,0.0
-0.7446,-0.1497,-0.0774,-7.2479,24.5895,-10.8948,2024-02-12 15:49:33.938,0.0
-0.7488,-0.1404,-0.1404,-3.4714,21.9955,-10.9024,2024-02-12 15:49:33.959,0.0
-0.7285,-0.1208,-0.2126,-0.0992,15.7547,-8.7814,2024-02-12 15:49:33.975,0.0
-0.6685,-0.1042,-0.2144,-0.3662,7.9727,-5.9891,2024-02-12 15:49:33.992,
-0.5713,-0.0981,-0.1472,-5.0583,4.6692,-5.0201,2024-02-12 15:49:34.008,0.0
-0.5139,-0.1418,0.0103,-7.2479,14.0686,-7.1716,2024-02-12 15:49:34.025,0.0
-0.4741,-0.1763,0.0325,-6.3095,40.4587,-13.2446,2024-02-12 15:49:34.049,0.0
-0.5183,-0.137,-0.0801,-7.7515,57.5943,-24.5819,2024-02-12 15:49:34.066,0.0
-0.6157,-0.0586,-0.1392,-9.7885,52.536,-31.9595,2024-02-12 15:49:34.085,0.0
-0.6685,-0.0481,-0.0979,-11.0931,34.0958,-31.1508,2024-02-12 15:49:34.102,0.0
-0.7217,-0.0579,0.0544,-8.0643,9.2621,-21.7514,2024-02-12 15:49:34.117,0.0
-0.7075,-0.1238,0.1003,-1.9073,1.8005,-16.7618,2024-02-12 15:49:34.141,0.0
-0.6863,-0.1689,0.0369,-0.0534,4.7302,-12.9623,2024-02-12 15:49:34.150,0.0
-0.71,-0.2168,0.0295,2.1133,-1.503,-10.6659,2024-02-12 15:49:34.175,0.0
-0.7427,-0.2122,0.053,8.9264,-11.9553,-8.3466,2024-02-12 15:49:34.199,0.0
-0.8083,-0.207,-0.021,15.8691,-16.7923,-9.4452,2024-02-12 15:49:34.207,0.0
-0.814,-0.1863,-0.1187,18.7988,-15.8844,-6.7139,2024-02-12 15:49:34.223,0.0
-0.9915,-0.2227,-0.0857,23.7274,-25.856,2.2125,2024-02-12 15:49:34.247,0.0
-0.9429,-0.2227,-0.0491,26.9852,-51.0254,12.6572,2024-02-12 15:49:34.263,0.0
-0.939,-0.1821,0.0623,29.4647,-58.0368,18.8141,2024-02-12 15:49:34.280,0.0
-0.6091,-0.2307,-0.0742,30.6473,-37.117,15.8539,2024-02-12 15:49:34.296,0.0
-0.7876,-0.1731,-0.0918,26.7029,-42.7322,17.1585,2024-02-12 15:49:34.321,0.0
-0.7258,-0.1606,0.1023,21.019,-45.7458,13.443,2024-02-12 15:49:34.337,0.0
-0.6755,0.0093,0.0586,15.3809,-29.213,1.3123,2024-02-12 15:49:34.361,
-0.7561,0.1274,0.002,10.8871,-6.1798,-8.316,2024-02-12 15:49:34.369,0.0
-0.9114,0.0093,-0.0024,3.2272,-19.6457,-4.6234,2024-02-12 15:49:34.394,0.0
-0.9673,-0.0859,0.1067,-2.5558,-49.9268,6.0349,2024-02-12 15:49:34.411,0.0
-0.9329,-0.2043,0.3538,2.0218,-74.9435,14.4653,2024-02-12 15:49:34.427,0.0
-0.814,-0.2559,0.3306,12.2757,-83.8089,15.0299,2024-02-12 15:49:34.443,0.0
-0.7554,-0.2063,0.2488,14.9536,-70.7397,5.2948,2024-02-12 15:49:34.476,0.0
-0.895,-0.0374,0.2407,11.1237,-58.8226,-0.9384,2024-02-12 15:49:34.501,0.0
-0.9851,0.0295,0.1948,4.5624,-60.791,1.0605,2024-02-12 15:49:34.536,0.0
-0.9329,-0.062,0.3171,1.5335,-80.5511,4.3411,2024-02-12 15:49:34.536,0.0
-0.8533,-0.137,0.3616,2.6093,-92.3996,2.9907,2024-02-12 15:49:34.544,0.0
-0.8982,-0.2051,0.4785,5.2948,-74.1119,-0.7095,2024-02-12 15:49:34.576,0.0
-0.8787,-0.1548,0.4395,6.9504,-52.0325,-4.097,2024-02-12 15:49:34.576,0.0
-0.8455,-0.1389,0.3965,6.7215,-39.4135,-7.6218,2024-02-12 15:49:34.592,0.0
-1.0012,-0.1125,0.4463,7.3547,-41.4429,-10.9787,2024-02-12 15:49:34.600,0.0
-1.1494,-0.1094,0.3999,9.1248,-59.8984,-3.4256,2024-02-12 15:49:34.624,0.0
-1.1135,-0.1609,0.3928,13.3514,-67.421,10.5515,2024-02-12 15:49:34.649,0.0
-1.0344,-0.2024,0.3296,13.9999,-67.1005,16.7084,2024-02-12 15:49:34.657,0.0
-0.9836,-0.1909,0.3206,9.6741,-57.0374,17.4789,2024-02-12 15:49:34.673,0.0
-0.8359,-0.1826,0.4067,5.7678,-54.5349,19.4855,2024-02-12 15:49:34.697,0.0
-0.7874,-0.1438,0.5032,0.5646,-50.1328,18.3563,2024-02-12 15:49:34.713,
-0.8511,-0.1453,0.5735,-0.5875,-47.1649,16.1972,2024-02-12 15:49:34.730,0.0
-0.8457,-0.1465,0.615,-1.4801,-45.6696,15.7242,2024-02-12 15:49:34.754,0.0
-0.8467,-0.106,0.6287,1.5945,-42.6941,13.6719,2024-02-12 15:49:34.773,0.0
-0.843,-0.106,0.6528,4.0207,-40.7104,14.74,2024-02-12 15:49:34.789,0.0
-0.8213,-0.0769,0.6792,5.3253,-37.1323,13.1989,2024-02-12 15:49:34.805,0.0
-0.8091,-0.0369,0.6514,4.5776,-30.6396,13.7939,2024-02-12 15:49:34.821,0.0
-0.813,-0.0398,0.6475,4.0131,-21.4386,14.0686,2024-02-12 15:49:34.846,0.0
-0.812,-0.0449,0.6453,2.9297,-13.3743,12.7945,2024-02-12 15:49:34.862,0.0
-0.8359,-0.0537,0.6311,1.7853,-10.2692,11.8561,2024-02-12 15:49:34.881,0.0
-0.8164,-0.0337,0.6042,0.5951,-13.4354,10.6812,2024-02-12 15:49:34.906,0.0
-0.7668,-0.0234,0.5452,-2.243,-16.7007,7.515,2024-02-12 15:49:34.914,0.0
-0.7441,-0.0215,0.5715,-3.3493,-14.9078,4.1809,2024-02-12 15:49:34.938,0.0
-0.7007,-0.0286,0.5642,-1.358,-10.4446,0.8011,2024-02-12 15:49:34.947,0.0
-0.7305,-0.0332,0.5659,1.709,-7.0801,-1.5259,2024-02-12 15:49:34.971,0.0
-0.7573,-0.0354,0.5752,4.2038,-5.8289,-3.0899,2024-02-12 15:49:34.987,0.0
-0.7551,-0.0557,0.5947,6.9199,-3.8147,-2.3499,2024-02-12 15:49:35.012,0.0
-0.7666,-0.072,0.5967,8.8196,-2.9221,-0.6104,2024-02-12 15:49:35.028,0.0
-0.7483,-0.052,0.5894,8.9035,-5.2261,1.9073,2024-02-12 15:49:35.044,0.0
-0.73,-0.043,0.5786,8.255,-7.4158,2.594,2024-02-12 15:49:35.061,0.0
-0.7043,-0.0518,0.582,6.6223,-9.201,2.0218,2024-02-12 15:49:35.080,
-0.6838,-0.0552,0.5732,5.0049,-8.3847,0.2823,2024-02-12 15:49:35.099,0.0
-0.6902,-0.0693,0.595,3.7766,-5.0507,-1.1215,2024-02-12 15:49:35.116,0.0
-0.718,-0.0642,0.5808,2.3499,-2.1591,-1.8234,2024-02-12 15:49:35.139,0.0
-0.72,-0.0571,0.5845,1.1292,-1.2665,-2.388,2024-02-12 15:49:35.156,0.0
-0.7139,-0.0562,0.5972,0.7401,-1.5488,-3.067,2024-02-12 15:49:35.172,0.0
-0.709,-0.0479,0.6172,0.3128,0.2518,-3.1357,2024-02-12 15:49:35.188,0.0
-0.7175,-0.0544,0.6279,-0.1678,3.7766,-3.1586,2024-02-12 15:49:35.204,0.0
-0.7297,-0.0564,0.6294,-1.442,7.0724,-3.1357,2024-02-12 15:49:35.220,0.0
-0.7334,-0.061,0.6086,-2.9526,9.4833,-2.8534,2024-02-12 15:49:35.244,0.0
-0.7283,-0.0569,0.6245,-3.7537,11.4822,-2.6932,2024-02-12 15:49:35.261,0.0
-0.7227,-0.0566,0.6035,-3.9291,12.1994,-2.3727,2024-02-12 15:49:35.281,0.0
-0.7183,-0.0647,0.5984,-4.2801,13.1607,-2.6245,2024-02-12 15:49:35.297,0.0
-0.7207,-0.0696,0.6055,-4.1962,13.9923,-2.5482,2024-02-12 15:49:35.319,0.0
-0.7007,-0.0542,0.6001,-4.3488,14.8163,-2.9831,2024-02-12 15:49:35.336,0.0
-0.7039,-0.0557,0.5947,-4.6158,17.0288,-3.9062,2024-02-12 15:49:35.352,0.0
-0.6938,-0.0486,0.5857,-4.1504,20.2103,-5.1651,2024-02-12 15:49:35.372,0.0
-0.7136,-0.0564,0.5796,-4.0817,21.9345,-6.7139,2024-02-12 15:49:35.389,0.0
-0.728,-0.0623,0.5691,-4.0817,22.5372,-7.2098,2024-02-12 15:49:35.414,0.0
-0.7205,-0.0503,0.5708,-3.7384,23.0026,-6.7825,2024-02-12 15:49:35.422,0.0
-0.7202,-0.0461,0.572,-3.5629,23.6969,-7.103,2024-02-12 15:49:35.446,
-0.7046,-0.0469,0.6001,-3.7384,25.7187,-8.8806,2024-02-12 15:49:35.470,0.0
-0.6909,-0.0432,0.615,-4.4403,30.3421,-10.231,2024-02-12 15:49:35.479,0.0
-0.6672,-0.0247,0.6155,-7.9269,39.0701,-12.7487,2024-02-12 15:49:35.495,0.0
-0.7114,0.0056,0.5881,-15.831,49.4232,-20.7367,2024-02-12 15:49:35.519,0.0
-0.7891,0.0151,0.5884,-24.231,54.8019,-24.3225,2024-02-12 15:49:35.536,0.0
-0.7986,-0.0107,0.6187,-25.7721,57.869,-24.765,2024-02-12 15:49:35.552,0.0
-0.7954,-0.0403,0.6597,-19.8975,55.687,-23.9258,2024-02-12 15:49:35.569,0.0
-0.8247,-0.0703,0.5811,-12.1689,48.6832,-20.2408,2024-02-12 15:49:35.587,0.0
-0.8298,-0.0801,0.5051,-8.1711,47.7524,-18.5623,2024-02-12 15:49:35.603,0.0
-0.8962,-0.0601,0.4612,-7.7362,40.062,-19.3481,2024-02-12 15:49:35.627,0.0
-0.9951,-0.0381,0.343,-10.9482,29.8004,-20.8664,2024-02-12 15:49:35.635,0.0
-0.9709,-0.1382,0.3472,-18.2648,15.2283,-19.0201,2024-02-12 15:49:35.660,0.0
-1.0088,-0.2161,0.4519,-20.6223,12.2299,-10.1089,2024-02-12 15:49:35.679,0.0
-0.937,-0.1848,0.5198,-15.4266,18.1656,-5.3253,2024-02-12 15:49:35.695,0.0
-0.9939,-0.2109,0.4683,-11.2228,29.274,-8.7357,2024-02-12 15:49:35.712,0.0
-0.9531,-0.1956,0.3896,-11.2228,40.5273,-12.085,2024-02-12 15:49:35.728,0.0
-1.0149,-0.1785,0.374,-13.2675,48.3398,-13.6871,2024-02-12 15:49:35.753,0.0
-1.0305,-0.178,0.3479,-14.3204,54.451,-13.0844,2024-02-12 15:49:35.769,0.0
-0.9976,-0.1748,0.3396,-12.7869,59.1049,-10.994,2024-02-12 15:49:35.788,0.0
-0.9919,-0.1787,0.3027,-10.1929,61.3174,-10.9558,2024-02-12 15:49:35.804,
-0.9866,-0.1616,0.2861,-7.4539,61.3251,-10.1242,2024-02-12 15:49:35.820,0.0
-0.9761,-0.1741,0.2632,-5.8517,60.257,-9.3231,2024-02-12 15:49:35.836,0.0
-0.9863,-0.1733,0.2253,-4.8141,57.8079,-8.4,2024-02-12 15:49:35.860,0.0
-0.9854,-0.1902,0.1838,-3.5324,56.1523,-5.0659,2024-02-12 15:49:35.877,0.0
-0.9661,-0.2205,0.1533,-1.8692,55.1453,-3.9673,2024-02-12 15:49:35.911,0.0
-0.9656,-0.2153,0.106,-0.8163,53.4134,-5.6915,2024-02-12 15:49:35.920,0.0
-0.9839,-0.1865,0.0874,-0.4425,51.6434,-6.1188,2024-02-12 15:49:35.927,0.0
-0.9414,-0.1687,0.0669,-0.9995,52.948,-4.2648,2024-02-12 15:49:35.952,0.0
-0.918,-0.1682,0.0735,-2.8915,55.3513,-3.6087,2024-02-12 15:49:35.968,0.0
-0.8938,-0.189,0.0918,-5.1422,54.8096,-2.9297,2024-02-12 15:49:35.979,0.0
-0.8943,-0.1919,0.0737,-6.2943,49.3622,-2.5406,2024-02-12 15:49:36.003,0.0
-0.906,-0.1987,0.082,-6.2103,39.2914,-3.1662,2024-02-12 15:49:36.020,0.0
-0.865,-0.1951,0.0767,-6.2408,31.5552,-5.6381,2024-02-12 15:49:36.062,0.0
-0.8435,-0.2029,0.1113,-6.424,25.4593,-3.891,2024-02-12 15:49:36.062,0.0
-0.8186,-0.1777,0.1274,-6.6376,21.4539,-1.2817,2024-02-12 15:49:36.079,0.0
-0.8047,-0.1509,0.1362,-7.0419,18.6768,0.061,2024-02-12 15:49:36.096,0.0
-0.8047,-0.1287,0.1309,-9.2239,15.8844,1.4877,2024-02-12 15:49:36.113,0.0
-0.7976,-0.1213,0.0867,-13.4201,16.4948,2.6245,2024-02-12 15:49:36.128,0.0
-0.7986,-0.1228,0.0681,-18.6996,17.4484,2.8915,2024-02-12 15:49:36.145,0.0
-0.811,-0.1348,0.1238,-18.0435,14.2517,5.5847,2024-02-12 15:49:36.170,
-0.8081,-0.1592,0.1321,-16.9449,9.079,9.8495,2024-02-12 15:49:36.180,0.0
-0.7886,-0.1814,0.1292,-17.4103,8.934,12.6801,2024-02-12 15:49:36.205,0.0
-0.7861,-0.1819,0.1196,-16.7313,8.9645,14.2746,2024-02-12 15:49:36.213,0.0
-0.8047,-0.1587,0.0884,-16.1133,10.6583,17.6544,2024-02-12 15:49:36.237,0.0
-0.7742,-0.1377,0.0876,-14.2059,8.9951,20.4315,2024-02-12 15:49:36.253,0.0
-0.7566,-0.1035,0.0886,-10.9558,2.5558,21.5836,2024-02-12 15:49:36.270,0.0
-0.7498,-0.0857,0.0107,-10.2539,4.6997,23.6664,2024-02-12 15:49:36.296,0.0
-0.6858,-0.1047,0.0571,-10.2692,-3.9825,23.8647,2024-02-12 15:49:36.304,0.0
-0.679,-0.1167,0.0928,-7.5836,-18.8522,21.8964,2024-02-12 15:49:36.329,0.0
-0.656,-0.1711,0.1204,-6.5384,-33.8211,21.3089,2024-02-12 15:49:36.345,0.0
-0.5962,-0.1682,0.0847,-2.2278,-50.9567,18.8446,2024-02-12 15:49:36.362,0.0
-0.5623,-0.1179,0.0149,-0.6027,-60.4172,17.9291,2024-02-12 15:49:36.387,0.0
-0.5193,-0.0593,-0.0256,-3.3646,-57.9071,17.2729,2024-02-12 15:49:36.395,0.0
-0.4687,-0.0515,-0.0144,-5.8136,-45.8145,11.2228,2024-02-12 15:49:36.420,0.0
-0.4973,-0.0645,-0.03,-4.3182,-36.1557,4.1428,2024-02-12 15:49:36.437,0.0
-0.5867,-0.0566,-0.0789,-2.9297,-26.2833,3.891,2024-02-12 15:49:36.453,0.0
-0.6443,-0.0994,-0.0698,-3.2883,-16.8686,4.9286,2024-02-12 15:49:36.469,0.0
-0.7439,-0.166,-0.04,-2.7084,-10.0021,5.1498,2024-02-12 15:49:36.494,0.0
-0.8232,-0.199,-0.0212,-0.1907,-8.4839,6.6452,2024-02-12 15:49:36.511,0.0
-0.8303,-0.168,-0.0439,1.2207,-14.3967,7.7591,2024-02-12 15:49:36.527,
-0.7754,-0.1001,-0.0432,-0.9079,-18.9362,8.4839,2024-02-12 15:49:36.552,0.0
-0.7588,-0.0801,0.0132,-2.3956,-9.8648,5.6305,2024-02-12 15:49:36.560,0.0
-0.7837,-0.0557,0.0176,-2.3041,0.9766,1.3199,2024-02-12 15:49:36.577,0.0
-0.8318,-0.0127,-0.0002,-5.9891,4.1351,-0.1602,2024-02-12 15:49:36.602,0.0
-0.8381,-0.0234,0.0393,-9.2926,4.5242,-1.9913,2024-02-12 15:49:36.610,0.0
-0.8701,-0.0759,0.1157,-9.697,8.5754,-6.012,2024-02-12 15:49:36.634,0.0
-0.9241,-0.1123,0.1367,-6.6452,10.9482,-8.4534,2024-02-12 15:49:36.658,0.0
-0.9426,-0.1172,0.085,-2.8229,5.9586,-7.1793,2024-02-12 15:49:36.666,0.0
-0.8792,-0.1323,0.0159,-2.5101,-3.6621,-4.9362,2024-02-12 15:49:36.687,0.0
-0.7969,-0.1643,0.01,-2.4796,-6.6147,-4.4556,2024-02-12 15:49:36.712,0.0
-0.7537,-0.1458,0.0698,0.3204,2.4185,-4.4098,2024-02-12 15:49:36.736,0.0
-0.7446,-0.1013,0.0615,2.037,17.807,-5.4626,2024-02-12 15:49:36.744,0.0
-0.781,-0.0808,0.0083,1.1826,24.971,-6.218,2024-02-12 15:49:36.753,0.0
-0.8313,-0.0598,-0.0173,0.6104,24.9786,-5.4855,2024-02-12 15:49:36.778,0.0
-0.8645,-0.072,0.0132,-1.1597,20.2332,-3.7384,2024-02-12 15:49:36.795,0.0
-0.853,-0.0798,0.0559,-2.2736,17.5705,-4.5013,2024-02-12 15:49:36.811,0.0
-0.8433,-0.0862,0.0142,-2.6093,14.1602,-5.127,2024-02-12 15:49:36.836,0.0
-0.8247,-0.0962,-0.0317,-4.8981,10.8185,-5.1117,2024-02-12 15:49:36.852,0.0
-0.8154,-0.0967,-0.04,-5.6381,10.9177,-4.3488,2024-02-12 15:49:36.869,0.0
-0.7805,-0.0991,-0.1035,-6.5308,10.3912,-4.4937,2024-02-12 15:49:36.886,
-0.7041,-0.1326,-0.113,-7.9575,9.964,-6.7978,2024-02-12 15:49:36.919,0.0
-0.6821,-0.1226,-0.0708,-4.5166,20.3323,-9.5673,2024-02-12 15:49:36.919,0.0
-0.6646,-0.1201,-0.1384,-2.449,38.6734,-12.9089,2024-02-12 15:49:36.944,0.0
-0.6809,-0.1233,-0.1714,-4.9667,48.3627,-16.9373,2024-02-12 15:49:36.952,0.0
-0.7139,-0.1492,-0.2671,-6.3629,47.5311,-17.601,2024-02-12 15:49:36.994,0.0
-0.6475,-0.1802,-0.3,-9.079,40.1154,-17.746,2024-02-12 15:49:36.994,0.0
-0.5569,-0.1812,-0.1824,-10.4294,38.3759,-20.6146,2024-02-12 15:49:37.019,0.0
-0.5381,-0.1572,-0.0493,-10.1929,48.8663,-25.6348,2024-02-12 15:49:37.027,0.0
-0.5457,-0.1086,0.0139,-2.9831,64.8727,-26.2299,2024-02-12 15:49:37.060,0.0
-0.6011,-0.0562,-0.0627,-0.4578,74.2798,-24.7192,2024-02-12 15:49:37.069,0.0
-0.676,-0.0359,-0.1208,1.6708,77.6901,-19.6533,2024-02-12 15:49:37.085,0.0
-0.7363,0.0081,-0.1086,3.5172,59.082,-11.0855,2024-02-12 15:49:37.109,0.0
-0.7161,-0.1169,-0.0393,-1.1063,31.9061,-8.7051,2024-02-12 15:49:37.119,0.0
-0.7173,-0.2205,0.0281,0.1373,13.3438,-8.0795,2024-02-12 15:49:37.160,0.0
-0.7825,-0.1777,0.0225,8.5373,15.9531,-4.6005,2024-02-12 15:49:37.160,0.0
-0.7852,-0.0308,-0.0146,18.4402,18.9819,-4.2877,2024-02-12 15:49:37.168,0.0
-0.8799,0.0061,-0.1082,23.6206,3.418,6.4545,2024-02-12 15:49:37.194,0.0
-0.9419,-0.1194,-0.0469,22.2015,-26.4664,19.8517,2024-02-12 15:49:37.212,0.0
-0.7952,-0.3047,0.094,22.583,-39.7568,28.8467,2024-02-12 15:49:37.228,0.0
-0.4299,-0.3452,0.1558,26.1078,-19.1193,19.0277,2024-02-12 15:49:37.253,
-0.6169,-0.2046,0.145,29.1519,-5.7297,6.9122,2024-02-12 15:49:37.269,0.0
-0.7649,-0.0652,-0.012,28.7018,4.0283,4.2038,2024-02-12 15:49:37.285,0.0
-0.7964,0.0283,-0.0818,28.45,-8.7662,3.1128,2024-02-12 15:49:37.301,0.0
-0.8633,0.011,-0.0042,23.2773,-24.8489,7.1182,2024-02-12 15:49:37.317,0.0
-0.8843,-0.0312,0.0256,16.8304,-22.7203,10.4446,2024-02-12 15:49:37.350,0.0
-0.8276,-0.0918,0.0198,10.2997,-12.7029,8.6365,2024-02-12 15:49:37.359,0.0
-0.825,-0.1223,-0.031,6.1188,-19.1345,4.1962,2024-02-12 15:49:37.375,0.0
-0.8467,-0.0835,0.0078,4.631,-32.0969,0.9232,2024-02-12 15:49:37.391,0.0
-0.8513,-0.1101,-0.0398,2.0599,-44.5862,-1.7319,2024-02-12 15:49:37.416,0.0
-0.9226,-0.1003,0.0161,-0.8392,-53.36,1.4954,2024-02-12 15:49:37.433,0.0
-0.884,-0.137,-0.0002,-1.9302,-61.1115,-1.1749,2024-02-12 15:49:37.449,0.0
-0.8652,-0.1499,0.0442,-0.1144,-59.4025,-5.8289,2024-02-12 15:49:37.465,0.0
-0.915,-0.1189,0.0215,1.3504,-56.1218,-5.6992,2024-02-12 15:49:37.482,0.0
-0.9421,-0.1421,0.0046,1.1826,-58.6166,-2.2125,2024-02-12 15:49:37.499,0.0
-0.9873,-0.1274,0.0671,-2.3804,-66.5436,-1.8311,2024-02-12 15:49:37.523,0.0
-1.0464,-0.0593,0.1655,-6.7444,-74.7452,-3.0899,2024-02-12 15:49:37.539,0.0
-0.98,-0.0786,0.2302,-3.7003,-83.5876,-1.5335,2024-02-12 15:49:37.555,0.0
-0.9229,-0.1223,0.2507,0.7553,-87.6999,1.564,2024-02-12 15:49:37.571,0.0
-0.9182,-0.1265,0.2627,1.8082,-78.0869,4.4937,2024-02-12 15:49:37.596,0.0
-0.9153,-0.1248,0.2412,0.8621,-66.1011,6.9046,2024-02-12 15:49:37.612,
-0.9614,-0.0967,0.2544,0.9079,-62.4924,9.0256,2024-02-12 15:49:37.628,0.0
-0.9724,-0.0884,0.2637,2.9526,-64.8727,12.7335,2024-02-12 15:49:37.645,0.0
-0.9543,-0.1257,0.2493,4.1275,-65.3458,13.0005,2024-02-12 15:49:37.662,0.0
-0.9275,-0.1167,0.2808,3.7308,-65.8188,12.0392,2024-02-12 15:49:37.687,0.0
-0.9263,-0.1096,0.3518,2.2736,-65.4449,14.3967,2024-02-12 15:49:37.704,0.0
-0.8599,-0.0876,0.3794,-0.1755,-62.8586,16.6168,2024-02-12 15:49:37.728,0.0
-0.7751,-0.1057,0.4009,-5.1956,-57.2815,14.1068,2024-02-12 15:49:37.744,0.0
-0.7991,-0.0916,0.4287,-8.3771,-47.6227,7.9575,2024-02-12 15:49:37.761,0.0
-0.8975,-0.0686,0.4807,-6.073,-48.6679,6.8359,2024-02-12 15:49:37.778,0.0
-0.9048,-0.0664,0.5271,-0.7629,-58.0368,12.0239,2024-02-12 15:49:37.793,0.0
-0.8872,-0.0605,0.5388,0.1678,-58.1589,13.6261,2024-02-12 15:49:37.810,0.0
-0.8784,-0.0815,0.5576,-2.4033,-46.5775,12.9852,2024-02-12 15:49:37.829,0.0
-0.895,-0.0583,0.5891,-3.624,-30.3192,12.8098,2024-02-12 15:49:37.853,0.0
-0.8914,-0.0706,0.5583,-2.9068,-21.9116,9.9335,2024-02-12 15:49:37.869,0.0
-0.929,-0.1145,0.6128,-0.6104,-24.2386,6.9733,2024-02-12 15:49:37.886,0.0
-0.8882,-0.1196,0.5823,0.351,-25.2151,4.982,2024-02-12 15:49:37.910,0.0
-0.8564,-0.104,0.562,-1.4954,-22.0718,2.388,2024-02-12 15:49:37.926,0.0
-0.8098,-0.1067,0.5718,-2.7237,-16.5634,0.1984,2024-02-12 15:49:37.945,0.0
-0.7969,-0.1055,0.5801,-1.8768,-13.4964,-0.206,2024-02-12 15:49:37.962,0.0
-0.7668,-0.0732,0.5547,-1.236,-12.4741,-0.0534,2024-02-12 15:49:37.986,
-0.7327,-0.0635,0.533,-1.8387,-10.9177,0.946,2024-02-12 15:49:38.011,0.0
-0.7163,-0.0396,0.5376,-2.6932,-8.6899,1.8311,2024-02-12 15:49:38.037,0.0
-0.731,-0.0364,0.5327,-2.655,-3.7994,3.1128,2024-02-12 15:49:38.042,0.0
-0.7393,-0.0547,0.5376,-1.2436,0.9766,4.1275,2024-02-12 15:49:38.050,0.0
-0.7483,-0.061,0.5078,0.1755,3.3646,5.0507,2024-02-12 15:49:38.067,0.0
-0.7363,-0.0645,0.5205,0.7629,0.5417,4.3488,2024-02-12 15:49:38.091,0.0
-0.7402,-0.0515,0.5222,1.0071,-1.976,3.5553,2024-02-12 15:49:38.107,0.0
-0.7446,-0.0508,0.5527,1.4572,-2.8,3.2043,2024-02-12 15:49:38.124,0.0
-0.7239,-0.0486,0.5525,1.3123,-2.5558,2.3804,2024-02-12 15:49:38.149,0.0
-0.7415,-0.0505,0.5664,0.946,0.5875,1.2894,2024-02-12 15:49:38.165,0.0
-0.7583,-0.042,0.5637,0.946,2.6169,1.3733,2024-02-12 15:49:38.189,0.0
-0.7573,-0.0581,0.5696,0.4501,2.9068,1.5793,2024-02-12 15:49:38.197,0.0
-0.7385,-0.0488,0.562,0.3357,3.7994,1.5564,2024-02-12 15:49:38.221,0.0
-0.7375,-0.0535,0.551,-0.3662,5.455,0.4883,2024-02-12 15:49:38.232,0.0
-0.7344,-0.0383,0.5637,-0.5722,5.5923,-0.4196,2024-02-12 15:49:38.256,0.0
-0.7351,-0.0486,0.5801,0.1678,7.4081,-0.6638,2024-02-12 15:49:38.272,0.0
-0.7241,-0.0352,0.5874,1.7166,8.4229,-1.1749,2024-02-12 15:49:38.288,0.0
-0.7324,-0.0308,0.5779,2.6474,9.4986,-2.2964,2024-02-12 15:49:38.304,0.0
-0.7419,-0.042,0.5867,2.655,10.6277,-3.9368,2024-02-12 15:49:38.328,0.0
-0.7295,-0.0247,0.5632,1.358,9.3536,-5.2643,2024-02-12 15:49:38.346,
-0.7295,-0.0139,0.5513,0.2365,9.4299,-5.6915,2024-02-12 15:49:38.362,0.0
-0.7153,-0.0183,0.5513,-0.6866,11.0016,-5.4092,2024-02-12 15:49:38.387,0.0
-0.7268,-0.0308,0.5522,-1.5564,13.4583,-5.4016,2024-02-12 15:49:38.395,0.0
-0.7244,-0.0598,0.5508,-2.4109,17.1204,-6.012,2024-02-12 15:49:38.420,0.0
-0.7261,-0.1509,0.603,-1.6403,17.7612,-9.1171,2024-02-12 15:49:38.436,0.0
-0.7593,-0.1562,0.5801,3.685,16.2506,-12.291,2024-02-12 15:49:38.461,0.0
-0.7488,-0.1089,0.593,7.2021,11.7798,-13.7711,2024-02-12 15:49:38.477,0.0
-0.7148,-0.0757,0.5747,10.0937,9.8801,-14.7629,2024-02-12 15:49:38.494,0.0
-0.6982,-0.0593,0.5198,10.3149,14.9689,-17.1432,2024-02-12 15:49:38.510,0.0
-0.7222,-0.0427,0.5151,9.1629,21.9574,-20.9351,2024-02-12 15:49:38.526,0.0
-0.7556,-0.0256,0.509,9.4833,25.5356,-22.4838,2024-02-12 15:49:38.543,0.0
-0.783,-0.0127,0.4683,9.2239,26.123,-22.2931,2024-02-12 15:49:38.559,0.0
-0.7676,0.0083,0.4421,6.0501,27.5726,-21.2021,2024-02-12 15:49:38.580,0.0
-0.7703,0.0261,0.4414,2.1896,31.3187,-21.3013,2024-02-12 15:49:38.596,0.0
-0.8018,0.0056,0.4705,0.0305,37.4298,-20.1721,2024-02-12 15:49:38.621,0.0
-0.8455,-0.0156,0.4136,-1.8463,42.0609,-17.5629,2024-02-12 15:49:38.629,0.0
-0.9004,-0.0322,0.4265,-3.6392,43.2587,-10.2692,2024-02-12 15:49:38.653,0.0
-0.9014,-0.054,0.5012,-8.7891,41.6107,-3.7994,2024-02-12 15:49:38.670,0.0
-0.9214,-0.0972,0.5225,-11.6577,34.3475,1.2817,2024-02-12 15:49:38.697,0.0
-0.8667,-0.0862,0.4961,-12.352,30.2048,-4.2038,2024-02-12 15:49:38.713,
-0.9023,-0.1187,0.4624,-11.4975,30.6702,-30.8685,2024-02-12 15:49:38.721,0.0
-1.1965,-0.0789,0.4788,-12.7029,11.1313,-45.0974,2024-02-12 15:49:38.745,0.0
-1.0867,-0.1973,0.4685,-17.5705,6.2332,-16.9296,2024-02-12 15:49:38.770,0.0
-0.96,-0.2043,0.4807,-15.6631,29.6173,-10.3455,2024-02-12 15:49:38.778,0.0
-1.0144,-0.1843,0.406,-11.8408,43.2739,-13.2828,2024-02-12 15:49:38.803,0.0
-1.0415,-0.1467,0.3997,-11.4212,55.3131,-8.2855,2024-02-12 15:49:38.819,0.0
-1.0156,-0.1636,0.3918,-11.2915,62.767,-10.6201,2024-02-12 15:49:38.836,0.0
-1.0229,-0.1746,0.3718,-9.0332,63.1027,-10.2386,2024-02-12 15:49:38.852,0.0
-0.9678,-0.1812,0.3164,-5.8441,64.537,-10.3836,2024-02-12 15:49:38.877,0.0
-0.9529,-0.1672,0.2834,-3.2425,65.5823,-10.3455,2024-02-12 15:49:38.894,0.0
-0.9299,-0.1699,0.2576,-1.5106,62.8662,-11.3602,2024-02-12 15:49:38.902,0.0
-0.9668,-0.1694,0.229,-0.2823,60.1349,-11.0092,2024-02-12 15:49:38.927,0.0
-0.9731,-0.1475,0.1831,0.7401,58.3496,-7.225,2024-02-12 15:49:38.943,0.0
-0.9221,-0.1602,0.1179,0.2518,57.9605,-5.7297,2024-02-12 15:49:38.967,0.0
-0.8875,-0.1921,0.1047,-0.5264,56.3965,-7.5073,2024-02-12 15:49:38.984,0.0
-0.8813,-0.2129,0.0879,-3.3875,52.4597,-9.6817,2024-02-12 15:49:39.000,0.0
-0.8508,-0.1953,0.0979,-4.0741,49.614,-7.0419,2024-02-12 15:49:39.016,0.0
-0.8406,-0.196,0.1021,-3.6697,47.3557,-5.1041,2024-02-12 15:49:39.033,0.0
-0.8352,-0.2239,0.0872,-3.3646,42.7933,-5.8365,2024-02-12 15:49:39.074,0.0
-0.8198,-0.2187,0.0774,-4.2267,36.6135,-8.6746,2024-02-12 15:49:39.074,
-0.8716,-0.2112,0.0544,-5.6915,29.7089,-9.1934,2024-02-12 15:49:39.082,0.0
-0.8523,-0.1929,0.0464,-8.6212,21.7133,-7.019,2024-02-12 15:49:39.106,0.0
-0.8118,-0.166,0.0627,-12.1613,12.4588,-3.9444,2024-02-12 15:49:39.130,0.0
-0.7966,-0.144,0.1091,-13.6261,6.6605,-2.0981,2024-02-12 15:49:39.147,0.0
-0.7844,-0.1533,0.1252,-14.3356,3.1586,-2.0905,2024-02-12 15:49:39.163,0.0
-0.7871,-0.1685,0.1331,-14.9536,5.6686,-1.6861,2024-02-12 15:49:39.179,0.0
-0.8179,-0.1919,0.1057,-16.5634,8.6136,-1.0071,2024-02-12 15:49:39.204,0.0
-0.8254,-0.1697,0.0691,-17.2424,8.6288,-0.6104,2024-02-12 15:49:39.212,0.0
-0.8291,-0.1682,0.0757,-16.3879,6.34,1.5411,2024-02-12 15:49:39.237,0.0
-0.8232,-0.1616,0.082,-16.7847,0.5951,5.0735,2024-02-12 15:49:39.262,0.0
-0.8206,-0.1504,0.1079,-16.7923,-3.0365,7.3471,2024-02-12 15:49:39.271,0.0
-0.7751,-0.1689,0.1077,-14.6179,-3.5324,9.5062,2024-02-12 15:49:39.304,0.0
-0.7397,-0.1794,0.1125,-10.8795,-3.2959,9.7656,2024-02-12 15:49:39.305,0.0
-0.7227,-0.1465,0.1045,-8.7051,-1.1749,8.3618,2024-02-12 15:49:39.330,0.0
-0.7251,-0.1355,0.1182,-6.8741,-2.2049,8.0566,2024-02-12 15:49:39.338,0.0
-0.6694,-0.1594,0.1428,-3.6011,-13.4888,7.843,2024-02-12 15:49:39.362,0.0
-0.6367,-0.1257,0.1553,1.6785,-30.6702,8.1711,2024-02-12 15:49:39.379,0.0
-0.5889,-0.0901,0.135,3.3493,-45.6619,9.0485,2024-02-12 15:49:39.396,0.0
-0.5427,-0.1045,0.0986,1.6556,-41.9312,7.431,2024-02-12 15:49:39.425,0.0
-0.5596,-0.1204,0.0718,-1.0071,-26.7334,8.255,2024-02-12 15:49:39.433,
-0.5767,-0.1543,0.0642,-0.7172,-10.8871,8.1177,2024-02-12 15:49:39.449,0.0
-0.6428,-0.1536,0.03,1.0757,-8.8806,5.928,2024-02-12 15:49:39.474,0.0
-0.7002,-0.1516,0.0208,-0.4807,-17.1509,5.4932,2024-02-12 15:49:39.490,0.0
-0.7585,-0.1196,0.0481,-0.824,-26.4816,5.722,2024-02-12 15:49:39.506,0.0
-0.7727,-0.1069,0.0542,-0.2365,-27.6566,6.6605,2024-02-12 15:49:39.531,0.0
-0.7693,-0.0916,0.0173,1.2207,-23.4604,6.5002,2024-02-12 15:49:39.539,0.0
-0.7664,-0.0825,-0.0403,0.9537,-21.1182,7.8812,2024-02-12 15:49:39.563,0.0
-0.7642,-0.1208,-0.0496,-0.9003,-20.2637,8.8425,2024-02-12 15:49:39.588,0.0
-0.7483,-0.1694,0.009,-1.152,-22.6593,6.8817,2024-02-12 15:49:39.596,0.0
-0.7131,-0.1729,0.0864,0.6943,-17.8604,5.6152,2024-02-12 15:49:39.629,0.0
-0.6946,-0.1902,0.0823,3.5934,-3.8376,2.7924,2024-02-12 15:49:39.637,0.0
-0.7393,-0.1848,0.0522,5.3406,9.6588,0.0839,2024-02-12 15:49:39.653,0.0
-0.8257,-0.1372,0.0654,5.0812,17.4484,-1.3275,2024-02-12 15:49:39.679,0.0
-0.9119,-0.1179,0.0842,5.5771,16.4719,0.1373,2024-02-12 15:49:39.696,0.0
-0.928,-0.1021,0.0574,4.4632,3.0365,3.0746,2024-02-12 15:49:39.712,0.0
-0.8838,-0.1194,0.062,3.1281,-8.7738,4.3945,2024-02-12 15:49:39.729,0.0
-0.8074,-0.1267,0.0535,2.9678,-11.6882,3.8147,2024-02-12 15:49:39.746,0.0
-0.7363,-0.1487,0.0266,2.4872,-4.8828,1.236,2024-02-12 15:49:39.771,0.0
-0.7361,-0.1516,0.0039,0.9003,9.3002,-2.1896,2024-02-12 15:49:39.787,0.0
-0.8037,-0.1409,0.0371,-0.145,17.4332,-3.3646,2024-02-12 15:49:39.803,
-0.8538,-0.1282,0.0269,0.0687,15.5716,-2.2659,2024-02-12 15:49:39.820,0.0
-0.8506,-0.1394,0.0242,-0.7629,10.231,-0.7477,2024-02-12 15:49:39.837,0.0
-0.8086,-0.1362,0.0056,-0.3662,8.194,-0.3204,2024-02-12 15:49:39.853,0.0
-0.7644,-0.1262,-0.0403,-0.3433,11.6501,-0.351,2024-02-12 15:49:39.878,0.0
-0.762,-0.1328,-0.0439,-3.067,16.5863,-1.1215,2024-02-12 15:49:39.887,0.0
-0.7688,-0.1416,-0.0049,-6.2714,27.4887,-4.8523,2024-02-12 15:49:39.912,0.0
-0.7947,-0.1641,0.0291,-5.3253,30.8685,-6.012,2024-02-12 15:49:39.929,0.0
-0.8096,-0.147,-0.0137,-2.8152,30.1743,-4.4022,2024-02-12 15:49:39.953,0.0
-0.7942,-0.1226,-0.095,-4.1428,27.5497,-4.2496,2024-02-12 15:49:39.969,0.0
-0.7485,-0.1306,-0.1243,-8.7204,24.6735,-5.3711,2024-02-12 15:49:39.986,0.0
-0.7161,-0.1516,-0.0398,-9.6207,29.892,-7.3013,2024-02-12 15:49:40.002,0.0
-0.7266,-0.1714,-0.0146,-4.9057,43.3044,-9.0942,2024-02-12 15:49:40.026,0.0
-0.7729,-0.1423,-0.0779,-2.8763,52.5818,-8.8043,2024-02-12 15:49:40.035,0.0
-0.7708,-0.1453,-0.177,-3.624,49.1028,-6.8817,2024-02-12 15:49:40.058,0.0
-0.7324,-0.147,-0.155,-6.6452,36.7279,-4.8599,2024-02-12 15:49:40.074,0.0
-0.666,-0.1638,-0.0525,-7.9498,31.1279,-7.5607,2024-02-12 15:49:40.098,0.0
-0.6387,-0.1736,-0.0134,-4.0512,38.8641,-11.7188,2024-02-12 15:49:40.106,0.0
-0.6509,-0.158,-0.0388,0.8774,45.1355,-14.0228,2024-02-12 15:49:40.130,0.0
-0.6829,-0.1021,-0.0979,5.5542,40.9088,-10.6659,2024-02-12 15:49:40.147,0.0
-0.6494,-0.0957,-0.0645,5.8517,31.189,-8.2626,2024-02-12 15:49:40.163,
-0.6252,-0.1331,-0.0325,0.7401,23.3917,-11.0703,2024-02-12 15:49:40.179,0.0
-0.6006,-0.1843,0.0256,-2.7771,17.4408,-14.9612,2024-02-12 15:49:40.199,0.0
-0.6406,-0.1436,0.0955,1.5793,4.6463,-18.3945,2024-02-12 15:49:40.215,0.0
-0.635,-0.0442,0.0857,6.6986,-5.1346,-11.1084,2024-02-12 15:49:40.239,0.0
-0.5891,-0.0562,0.116,2.4414,2.4185,-14.061,2024-02-12 15:49:40.262,0.0
-0.7458,-0.0242,0.1106,-4.2877,12.9852,-21.7743,2024-02-12 15:49:40.279,0.0
-0.8604,-0.0845,0.1335,1.2131,4.6616,-20.1111,2024-02-12 15:49:40.295,0.0
-0.9373,-0.1277,0.0737,3.6163,-9.1095,-16.0294,2024-02-12 15:49:40.312,0.0
-0.8083,-0.168,0.0789,3.0289,-8.194,-9.0942,2024-02-12 15:49:40.336,0.0
-0.811,-0.2288,0.0605,3.9825,-15.6937,-5.5923,2024-02-12 15:49:40.379,0.0
-0.7727,-0.2405,0.0764,6.6757,-22.8882,-0.8774,2024-02-12 15:49:40.379,0.0
-0.7471,-0.251,0.0823,10.2386,-29.541,3.2806,2024-02-12 15:49:40.387,0.0
-0.7271,-0.2402,0.1169,14.5645,-43.5944,4.9057,2024-02-12 15:49:40.403,0.0
-0.8455,-0.2405,0.0449,19.9127,-53.6346,2.9984,2024-02-12 15:49:40.420,0.0
-0.9766,-0.1907,0.05,20.3094,-62.8586,8.2932,2024-02-12 15:49:40.436,0.0
-1.0347,-0.1196,-0.0239,18.1961,-71.6858,16.7007,2024-02-12 15:49:40.461,0.0
-0.7688,-0.054,-0.0491,12.1231,-73.204,16.6321,2024-02-12 15:49:40.477,0.0
-0.7683,-0.0437,0.0535,9.7427,-77.5528,12.1841,2024-02-12 15:49:40.501,0.0
-0.8254,-0.0798,0.105,8.7662,-78.1784,7.9117,2024-02-12 15:49:40.533,0.0
-0.9033,-0.1292,0.1821,7.0114,-74.0051,5.8289,2024-02-12 15:49:40.541,
-0.9092,-0.1108,0.198,7.3318,-68.512,8.6746,2024-02-12 15:49:40.549,0.0
-0.8779,-0.1714,0.1829,6.5613,-63.4155,7.5607,2024-02-12 15:49:40.566,0.0
-0.802,-0.2051,0.2434,9.5673,-64.6973,5.8746,2024-02-12 15:49:40.590,0.0
-0.8384,-0.1624,0.2761,11.9019,-62.912,0.0381,2024-02-12 15:49:40.607,0.0
-0.886,-0.1394,0.3342,15.8005,-64.3005,-3.1204,2024-02-12 15:49:40.623,0.0
-0.9902,-0.1445,0.3262,17.7383,-68.3136,-1.8005,2024-02-12 15:49:40.639,0.0
-1.0662,-0.1162,0.313,15.419,-71.8307,8.4076,2024-02-12 15:49:40.655,0.0
-1.0552,-0.1223,0.3193,11.1923,-72.5632,15.0909,2024-02-12 15:49:40.671,0.0
-1.0667,-0.1709,0.4265,9.2239,-81.9397,16.8381,2024-02-12 15:49:40.695,0.0
-1.0583,-0.2124,0.5359,12.1536,-94.7342,13.9389,2024-02-12 15:49:40.715,0.0
-1.0728,-0.2136,0.5552,15.4648,-96.1914,13.6185,2024-02-12 15:49:40.731,0.0
-0.9636,-0.2041,0.6333,17.5323,-89.5767,16.4795,2024-02-12 15:49:40.747,0.0
-0.7913,-0.0825,0.5972,14.9918,-73.204,12.7945,2024-02-12 15:49:40.768,0.0
-0.8242,-0.064,0.6311,11.528,-58.5022,9.2087,2024-02-12 15:49:40.784,0.0
-0.8538,-0.0608,0.6477,9.1476,-36.1938,12.6572,2024-02-12 15:49:40.800,0.0
-0.8257,-0.0256,0.6335,5.1956,-23.5977,13.2751,2024-02-12 15:49:40.825,0.0
-0.8066,-0.0117,0.6023,2.7618,-18.7149,12.9623,2024-02-12 15:49:40.858,0.0
-0.7346,-0.0498,0.6025,1.6861,-14.0762,11.3678,2024-02-12 15:49:40.875,0.0
-0.7756,-0.0874,0.6904,3.685,-12.9471,11.1847,2024-02-12 15:49:40.875,0.0
-0.8103,-0.0652,0.6572,4.7684,-15.4648,11.3678,2024-02-12 15:49:40.900,
-0.8142,-0.0354,0.6331,2.4567,-16.7542,10.7422,2024-02-12 15:49:40.917,0.0
-0.8054,-0.0112,0.6138,-2.2125,-18.1427,9.3613,2024-02-12 15:49:40.933,0.0
-0.7954,-0.0071,0.6345,-6.6452,-18.2571,7.2556,2024-02-12 15:49:40.949,0.0
-0.7549,-0.0215,0.6101,-8.667,-14.9231,4.158,2024-02-12 15:49:40.981,0.0
-0.7537,-0.0063,0.5898,-8.1024,-11.6119,2.7618,2024-02-12 15:49:40.998,0.0
-0.7427,-0.0142,0.6035,-6.3934,-9.2621,0.7858,2024-02-12 15:49:41.014,0.0
-0.761,-0.0203,0.6057,-3.685,-8.6746,0.7401,2024-02-12 15:49:41.030,0.0
-0.7605,-0.0203,0.5879,-2.2812,-9.5825,2.5558,2024-02-12 15:49:41.047,0.0
-0.7551,-0.0366,0.5874,-1.8005,-11.1542,4.364,2024-02-12 15:49:41.063,0.0
-0.7375,-0.0449,0.5952,-1.9379,-11.0626,5.6839,2024-02-12 15:49:41.084,0.0
-0.709,-0.0696,0.6028,-1.8845,-10.5286,5.5084,2024-02-12 15:49:41.092,0.0
-0.7041,-0.0864,0.6204,-2.7161,-10.8871,4.158,2024-02-12 15:49:41.116,0.0
-0.6887,-0.1096,0.6265,-3.2578,-10.8948,2.2507,2024-02-12 15:49:41.131,0.0
-0.6709,-0.1194,0.6243,-3.5324,-10.0098,0.2594,2024-02-12 15:49:41.147,0.0
-0.6714,-0.1179,0.645,-2.6703,-6.8512,-1.2131,2024-02-12 15:49:41.179,0.0
-0.6821,-0.1111,0.6619,-1.8463,-4.1733,-1.7624,2024-02-12 15:49:41.187,0.0
-0.6892,-0.1023,0.6453,-1.1444,-2.5711,-2.2888,2024-02-12 15:49:41.203,0.0
-0.7202,-0.0879,0.6208,-2.4033,-2.0828,-2.8152,2024-02-12 15:49:41.245,0.0
-0.7268,-0.0713,0.6135,-3.0746,-2.2888,-2.3651,2024-02-12 15:49:41.245,0.0
-0.7153,-0.0615,0.6196,-4.2801,-2.0294,-1.0223,2024-02-12 15:49:41.269,
-0.708,-0.0618,0.6514,-4.8752,-0.5417,-0.1831,2024-02-12 15:49:41.289,0.0
-0.7197,-0.0615,0.6572,-4.2572,1.3962,-0.3433,2024-02-12 15:49:41.297,0.0
-0.7224,-0.0623,0.6475,-4.0131,2.8687,-0.5417,2024-02-12 15:49:41.321,0.0
-0.7151,-0.054,0.6521,-4.4479,3.8757,-1.1368,2024-02-12 15:49:41.337,0.0
-0.7073,-0.0569,0.6492,-3.8834,4.3945,-0.9689,2024-02-12 15:49:41.353,0.0
-0.7114,-0.0576,0.6331,-3.6392,5.2567,-0.6332,2024-02-12 15:49:41.394,0.0
-0.7012,-0.0601,0.6321,-3.479,6.218,-0.7706,2024-02-12 15:49:41.394,0.0
-0.699,-0.0513,0.6294,-4.0359,7.431,-0.7706,2024-02-12 15:49:41.411,0.0
-0.6929,-0.0559,0.6189,-4.5013,8.3694,-0.8545,2024-02-12 15:49:41.420,0.0
-0.6885,-0.0591,0.6216,-4.7607,9.6817,-1.297,2024-02-12 15:49:41.446,0.0
-0.7002,-0.053,0.6274,-4.8065,11.9781,-1.3504,2024-02-12 15:49:41.462,0.0
-0.7004,-0.0588,0.6218,-4.4861,13.9389,-1.5182,2024-02-12 15:49:41.487,0.0
-0.6912,-0.0598,0.6125,-4.631,15.7166,-2.2354,2024-02-12 15:49:41.495,0.0
-0.6855,-0.053,0.6187,-4.5547,19.0506,-2.9526,2024-02-12 15:49:41.521,0.0
-0.6987,-0.0586,0.6147,-4.5395,23.5138,-3.2425,2024-02-12 15:49:41.537,0.0
-0.7119,-0.0649,0.6003,-4.6692,26.1459,-3.8605,2024-02-12 15:49:41.554,0.0
-0.7117,-0.0789,0.6008,-4.8447,27.5497,-4.5853,2024-02-12 15:49:41.570,0.0
-0.7031,-0.0564,0.6094,-5.2185,28.862,-6.4697,2024-02-12 15:49:41.594,0.0
-0.7195,-0.0537,0.6082,-4.4403,29.6097,-7.0038,2024-02-12 15:49:41.610,0.0
-0.7151,-0.0598,0.605,-4.0512,29.0222,-7.5378,2024-02-12 15:49:41.627,
-0.7112,-0.0598,0.5979,-4.2114,28.9383,-7.2403,2024-02-12 15:49:41.643,0.0
-0.7095,-0.0513,0.6082,-4.921,30.9143,-7.7209,2024-02-12 15:49:41.667,0.0
-0.7229,-0.0579,0.5911,-4.8294,33.4549,-8.3694,2024-02-12 15:49:41.684,0.0
-0.7468,-0.0605,0.5803,-4.5013,34.8663,-10.5057,2024-02-12 15:49:41.708,0.0
-0.7673,-0.0691,0.5671,-4.4403,34.0729,-12.6572,2024-02-12 15:49:41.716,0.0
-0.8184,-0.0764,0.5015,-5.8823,32.8674,-14.6866,2024-02-12 15:49:41.741,0.0
-0.8608,-0.0991,0.4597,-9.4986,29.8157,-17.067,2024-02-12 15:49:41.757,0.0
-0.9065,-0.0747,0.4668,-13.6871,19.9356,-27.6031,2024-02-12 15:49:41.781,0.0
-0.9185,-0.0923,0.4277,-15.7852,14.328,-31.3492,2024-02-12 15:49:41.789,0.0
-1.0176,-0.1238,0.519,-16.2354,13.1989,-27.153,2024-02-12 15:49:41.813,0.0
-0.9805,-0.1567,0.5659,-12.7563,14.6942,-22.9721,2024-02-12 15:49:41.829,0.0
-1.0344,-0.0994,0.5681,-8.4229,15.9073,-16.0141,2024-02-12 15:49:41.865,0.0
-1.0139,-0.1104,0.5518,-8.6899,21.9345,-10.0098,2024-02-12 15:49:41.873,0.0
-0.9272,-0.1086,0.5273,-10.1547,30.7922,-9.0866,2024-02-12 15:49:41.882,0.0
-0.8816,-0.1353,0.51,-11.3449,38.7955,-11.0474,2024-02-12 15:49:41.898,0.0
-0.8823,-0.1653,0.4922,-10.6506,44.5404,-13.1378,2024-02-12 15:49:41.914,0.0
-0.908,-0.1833,0.459,-10.2005,48.8129,-12.5809,2024-02-12 15:49:41.938,0.0
-0.8794,-0.188,0.4319,-10.4218,53.421,-12.9547,2024-02-12 15:49:41.957,0.0
-0.897,-0.1968,0.4102,-9.285,56.2897,-14.6027,2024-02-12 15:49:41.973,0.0
-0.9294,-0.1929,0.3882,-6.34,55.1071,-14.0457,2024-02-12 15:49:41.989,
-0.9207,-0.186,0.3472,-4.1046,52.3148,-12.1002,2024-02-12 15:49:42.014,0.0
-0.9219,-0.2161,0.3298,-3.6087,50.5753,-12.0087,2024-02-12 15:49:42.030,0.0
-0.9138,-0.2009,0.3188,-2.6093,49.8123,-12.6877,2024-02-12 15:49:42.046,0.0
-0.9443,-0.1567,0.292,-1.4648,52.1698,-8.9035,2024-02-12 15:49:42.071,0.0
-0.9429,-0.1631,0.2769,-1.77,53.7643,-6.5918,2024-02-12 15:49:42.087,0.0
-0.9111,-0.1934,0.2617,-2.9221,53.4668,-7.2174,2024-02-12 15:49:42.095,0.0
-0.9063,-0.1843,0.2439,-4.2191,55.9769,-7.4539,2024-02-12 15:49:42.125,0.0
-0.8855,-0.1726,0.2324,-3.9444,58.197,-5.8517,2024-02-12 15:49:42.142,0.0
-0.856,-0.1897,0.2173,-3.9902,59.9747,-4.5853,2024-02-12 15:49:42.150,0.0
-0.8508,-0.2114,0.2156,-3.6774,60.2188,-3.2654,2024-02-12 15:49:42.174,0.0
-0.8604,-0.2061,0.2073,-3.746,55.8167,-2.2278,2024-02-12 15:49:42.190,0.0
-0.8267,-0.1978,0.1941,-3.7003,47.8897,-1.9531,2024-02-12 15:49:42.214,0.0
-0.7856,-0.1882,0.1782,-3.8986,41.832,-1.5564,2024-02-12 15:49:42.222,0.0
-0.7778,-0.165,0.1819,-2.4567,37.0789,-1.297,2024-02-12 15:49:42.247,0.0
-0.7771,-0.1777,0.1865,-0.885,32.486,-1.4267,2024-02-12 15:49:42.279,0.0
-0.7537,-0.1824,0.1951,-0.7019,24.2081,-2.6169,2024-02-12 15:49:42.280,0.0
-0.7712,-0.1765,0.1841,-1.6022,19.5618,-1.9989,2024-02-12 15:49:42.304,0.0
-0.7864,-0.1738,0.1704,-2.1515,16.1285,-0.679,2024-02-12 15:49:42.321,0.0
-0.782,-0.1833,0.1545,-2.4185,13.7024,-0.1907,2024-02-12 15:49:42.337,0.0
-0.7888,-0.1641,0.1536,-3.273,12.8174,0.267,2024-02-12 15:49:42.353,
-0.7947,-0.1406,0.1575,-3.9597,10.4218,2.5482,2024-02-12 15:49:42.372,0.0
-0.7993,-0.1472,0.1594,-3.6697,6.4468,4.1885,2024-02-12 15:49:42.412,0.0
-0.8125,-0.1743,0.166,-3.3112,6.8283,4.4403,2024-02-12 15:49:42.412,0.0
-0.8125,-0.1846,0.1257,-2.6932,8.3618,5.127,2024-02-12 15:49:42.429,0.0
-0.8823,-0.1873,0.1023,-2.3651,7.6447,6.4087,2024-02-12 15:49:42.454,0.0
-0.8354,-0.1975,0.0986,-2.7008,3.3798,8.1635,2024-02-12 15:49:42.464,0.0
-0.7954,-0.1897,0.1072,-2.388,1.152,9.346,2024-02-12 15:49:42.488,0.0
-0.7666,-0.1672,0.0901,-1.6785,4.921,9.1858,2024-02-12 15:49:42.504,0.0
-0.7573,-0.1675,0.106,-1.358,8.5144,9.0332,2024-02-12 15:49:42.520,0.0
-0.7476,-0.1833,0.1001,-1.7471,9.8953,8.2321,2024-02-12 15:49:42.536,0.0
-0.7466,-0.1658,0.083,-1.8616,9.8801,7.5989,2024-02-12 15:49:42.572,0.0
-0.749,-0.1611,0.0815,-1.4343,9.8801,5.8212,2024-02-12 15:49:42.572,0.0
-0.7205,-0.1616,0.0659,-0.618,6.0043,4.5929,2024-02-12 15:49:42.589,0.0
-0.7329,-0.1494,0.0813,-0.6256,-0.3204,3.6697,2024-02-12 15:49:42.606,0.0
-0.7346,-0.1287,0.0833,-1.0452,-7.2098,2.9221,2024-02-12 15:49:42.630,0.0
-0.7019,-0.1169,0.0747,-1.1902,-13.0463,4.0894,2024-02-12 15:49:42.646,0.0
-0.6643,-0.124,0.0845,-0.824,-14.2593,3.5248,2024-02-12 15:49:42.665,0.0
-0.6746,-0.1267,0.0769,-0.6714,-7.5531,2.4719,2024-02-12 15:49:42.689,0.0
-0.6875,-0.1389,0.0879,1.2741,-6.0043,2.4567,2024-02-12 15:49:42.705,0.0
-0.7332,-0.1548,0.04,4.631,-5.6992,2.121,2024-02-12 15:49:42.721,
-0.771,-0.1677,0.0229,6.0577,-5.0735,3.4714,2024-02-12 15:49:42.738,0.0
-0.7964,-0.1931,0.0261,6.9504,-8.7891,5.2872,2024-02-12 15:49:42.755,0.0
-0.8074,-0.1841,0.0181,9.4986,-15.5182,7.515,2024-02-12 15:49:42.773,0.0
-0.812,-0.1602,0.0061,11.94,-21.9803,9.8343,2024-02-12 15:49:42.789,0.0
-0.7727,-0.1448,0.0171,11.5891,-25.8331,11.8027,2024-02-12 15:49:42.813,0.0
-0.7219,-0.1289,0.0239,11.2686,-23.5748,12.291,2024-02-12 15:49:42.830,0.0
-0.7004,-0.1248,-0.0061,11.1542,-16.5482,12.0316,2024-02-12 15:49:42.846,0.0
-0.687,-0.1094,-0.0542,10.788,-6.2866,10.0327,2024-02-12 15:49:42.866,0.0
-0.7017,-0.0891,-0.0325,9.1324,3.8528,6.424,2024-02-12 15:49:42.882,0.0
-0.7871,-0.1157,0.0349,7.6904,13.3438,2.5864,2024-02-12 15:49:42.906,0.0
-0.8574,-0.1326,0.075,6.7215,12.4512,1.7624,2024-02-12 15:49:42.922,0.0
-0.8823,-0.1226,0.0745,5.9814,5.6381,2.0523,2024-02-12 15:49:42.938,0.0
-0.897,-0.1094,0.0649,4.982,-1.7624,2.739,2024-02-12 15:49:42.962,0.0
-0.8608,-0.0942,0.01,3.4027,-7.9041,3.6011,2024-02-12 15:49:42.979,0.0
-0.8276,-0.1033,-0.0168,0.8698,-12.8326,1.9836,2024-02-12 15:49:42.995,0.0
-0.8044,-0.1167,0.0439,-2.6855,-11.3754,0.6866,2024-02-12 15:49:43.012,0.0
-0.8074,-0.1191,0.0974,-2.327,-3.6621,-0.3967,2024-02-12 15:49:43.028,0.0
-0.814,-0.1211,0.0876,-1.9455,-1.3962,-0.351,2024-02-12 15:49:43.045,0.0
-0.8025,-0.1274,0.0752,-2.8915,-2.0676,-0.3281,2024-02-12 15:49:43.070,0.0
-0.8213,-0.1208,0.1125,-4.1428,2.1515,-1.4648,2024-02-12 15:49:43.086,
-0.845,-0.1233,0.1204,-3.5019,4.7607,-0.6027,2024-02-12 15:49:43.103,0.0
-0.8455,-0.125,0.0923,-2.4338,3.2196,-0.8774,2024-02-12 15:49:43.119,0.0
-0.8386,-0.1096,0.0874,-2.739,2.5253,-1.8311,2024-02-12 15:49:43.151,0.0
-0.8552,-0.1096,0.0918,-2.243,2.4643,-1.9836,2024-02-12 15:49:43.159,0.0
-0.8621,-0.1064,0.0898,-1.503,0.8621,-1.0147,2024-02-12 15:49:43.171,0.0
-0.8352,-0.1118,0.0696,-1.8082,-2.2888,-0.6866,2024-02-12 15:49:43.203,0.0
-0.811,-0.1282,0.0991,-2.2202,-1.0757,-1.236,2024-02-12 15:49:43.220,0.0
-0.8096,-0.1292,0.1284,-1.152,4.1199,-2.4872,2024-02-12 15:49:43.236,0.0
-0.8423,-0.1201,0.124,-0.8392,6.5842,-2.4109,2024-02-12 15:49:43.244,0.0
-0.8496,-0.1116,0.1106,-1.2665,5.188,-1.9531,2024-02-12 15:49:43.271,0.0
-0.8413,-0.1218,0.1145,-1.4496,4.364,-1.1063,2024-02-12 15:49:43.288,0.0
-0.8442,-0.106,0.1108,-1.3351,5.3787,-1.0529,2024-02-12 15:49:43.305,0.0
-0.8376,-0.0996,0.1262,-0.6866,6.7673,-2.0828,2024-02-12 15:49:43.323,0.0
-0.8389,-0.1121,0.1057,-1.8616,5.7602,-2.3956,2024-02-12 15:49:43.340,0.0
-0.8396,-0.1182,0.0999,-3.6087,4.7226,-1.5182,2024-02-12 15:49:43.364,0.0
-0.8362,-0.1135,0.1199,-3.7994,5.2109,-1.2131,2024-02-12 15:49:43.380,0.0
-0.8408,-0.1069,0.1333,-3.1815,5.5237,-1.3733,2024-02-12 15:49:43.405,0.0
-0.8428,-0.0991,0.1199,-2.861,5.0507,-2.1057,2024-02-12 15:49:43.413,0.0
-0.8416,-0.0964,0.1069,-2.655,4.4708,-1.6251,2024-02-12 15:49:43.429,0.0
-0.8445,-0.1052,0.1155,-2.3956,5.1804,-1.7319,2024-02-12 15:49:43.446,
-0.8511,-0.1167,0.1204,-1.8692,5.0888,-1.5411,2024-02-12 15:49:43.478,0.0
-0.8491,-0.1187,0.1121,-1.5488,3.1738,-1.5335,2024-02-12 15:49:43.491,0.0
-0.8323,-0.115,0.1055,-0.6561,2.3727,-1.3885,2024-02-12 15:49:43.508,0.0
-0.8308,-0.113,0.1118,-0.8163,3.952,-1.77,2024-02-12 15:49:43.525,0.0
-0.8413,-0.1167,0.126,-1.0681,6.1417,-1.976,2024-02-12 15:49:43.541,0.0
-0.8511,-0.1067,0.1106,-0.6027,5.5313,-1.4038,2024-02-12 15:49:43.558,0.0
-0.8518,-0.1008,0.1113,-1.152,3.5095,-1.4572,2024-02-12 15:49:43.582,0.0
-0.8474,-0.1013,0.1135,-1.1292,3.5782,-1.6098,2024-02-12 15:49:43.598,0.0
-0.8481,-0.0979,0.1104,-1.3809,3.8376,-1.6327,2024-02-12 15:49:43.614,0.0
-0.8462,-0.1038,0.1106,-1.358,3.2578,-1.4572,2024-02-12 15:49:43.638,0.0
-0.8435,-0.1064,0.0984,-1.4191,2.6321,-1.2283,2024-02-12 15:49:43.647,0.0
-0.834,-0.0989,0.1067,-2.1591,2.6169,-1.1673,2024-02-12 15:49:43.672,0.0
-0.8447,-0.1006,0.1204,-2.2507,2.9984,-1.236,2024-02-12 15:49:43.688,0.0
-0.8408,-0.0989,0.1167,-2.5101,3.3417,-0.9537,2024-02-12 15:49:43.705,0.0
-0.8552,-0.0933,0.1206,-2.8534,2.1896,-0.8469,2024-02-12 15:49:43.720,0.0
-0.8552,-0.0947,0.1123,-3.5019,0.6256,-0.9079,2024-02-12 15:49:43.744,0.0
-0.8459,-0.1023,0.1101,-4.1885,-0.2441,-0.7782,2024-02-12 15:49:43.770,0.0
-0.8352,-0.1025,0.1079,-4.4861,0.2365,-1.1444,2024-02-12 15:49:43.788,0.0
-0.8289,-0.1011,0.1055,-4.9744,1.7242,-1.4877,2024-02-12 15:49:43.796,0.0
-0.8347,-0.1006,0.1157,-5.5923,2.7466,-1.6937,2024-02-12 15:49:43.820,
-0.8472,-0.1074,0.1218,-5.394,3.2349,-1.7929,2024-02-12 15:49:43.829,0.0
-0.8499,-0.1052,0.1104,-5.5389,2.0599,-1.297,2024-02-12 15:49:43.853,0.0
-0.8433,-0.1072,0.1006,-5.5008,1.1368,-1.297,2024-02-12 15:49:43.869,0.0
-0.8425,-0.1067,0.1084,-5.5923,1.236,-1.3046,2024-02-12 15:49:43.886,0.0
-0.8445,-0.1064,0.1099,-5.661,1.5717,-1.0986,2024-02-12 15:49:43.902,0.0
-0.8367,-0.1038,0.1104,-5.3024,1.6632,-1.1444,2024-02-12 15:49:43.919,0.0
-0.8408,-0.1145,0.1033,-4.7455,1.5869,-1.6327,2024-02-12 15:49:43.943,0.0
-0.8452,-0.1123,0.0952,-5.0583,0.9003,-1.3504,2024-02-12 15:49:43.959,0.0
-0.8474,-0.1162,0.1113,-4.8294,0.3281,-0.8621,2024-02-12 15:49:43.975,0.0
-0.8328,-0.1145,0.1035,-4.2572,0.8545,-1.0834,2024-02-12 15:49:44.016,0.0
-0.835,-0.1152,0.1079,-3.8986,2.4643,-1.1215,2024-02-12 15:49:44.016,0.0
-0.8381,-0.1084,0.093,-3.7842,2.9449,-1.1597,2024-02-12 15:49:44.032,0.0
-0.8323,-0.1091,0.095,-3.6545,3.0136,-1.3504,2024-02-12 15:49:44.073,0.0
-0.8376,-0.1172,0.0925,-3.8376,3.5553,-1.6098,2024-02-12 15:49:44.073,0.0
-0.8391,-0.1177,0.1021,-3.5629,4.6463,-1.7166,2024-02-12 15:49:44.081,0.0
-0.8423,-0.1204,0.1018,-3.5553,4.2038,-1.7319,2024-02-12 15:49:44.099,0.0
-0.8418,-0.1206,0.0869,-3.1281,3.5553,-2.1133,2024-02-12 15:49:44.132,0.0
-0.8423,-0.1194,0.0955,-3.1509,2.8229,-1.7624,2024-02-12 15:49:44.139,0.0
-0.8489,-0.1233,0.0901,-2.8687,2.121,-1.6937,2024-02-12 15:49:44.155,0.0
-0.8433,-0.1184,0.1062,-1.9073,2.037,-1.7853,2024-02-12 15:49:44.180,
-0.844,-0.1221,0.0964,-1.5488,2.6016,-2.0447,2024-02-12 15:49:44.188,0.0
-0.8423,-0.1235,0.0986,-1.8158,2.4567,-2.0142,2024-02-12 15:49:44.224,0.0
-0.8457,-0.1143,0.104,-1.4343,2.9831,-1.9989,2024-02-12 15:49:44.233,0.0
-0.8301,-0.1172,0.092,-0.9003,2.5787,-1.6785,2024-02-12 15:49:44.249,0.0
-0.8433,-0.1201,0.0903,-0.5493,2.7771,-2.1057,2024-02-12 15:49:44.273,0.0
-0.8428,-0.1235,0.075,-0.5035,2.121,-2.1973,2024-02-12 15:49:44.289,0.0
-0.8359,-0.124,0.0769,-0.5798,1.3733,-2.0523,2024-02-12 15:49:44.305,0.0
-0.8354,-0.1221,0.0671,-1.2054,2.2507,-2.4414,2024-02-12 15:49:44.322,0.0
-0.8293,-0.1182,0.0525,-2.0447,3.5858,-2.5101,2024-02-12 15:49:44.341,0.0
-0.8311,-0.1121,0.0449,-2.7237,4.9057,-2.449,2024-02-12 15:49:44.357,0.0
-0.835,-0.1123,0.0505,-2.7161,5.4474,-2.2049,2024-02-12 15:49:44.382,0.0
-0.8296,-0.1138,0.031,-2.5558,5.0049,-2.0142,2024-02-12 15:49:44.390,0.0
-0.8418,-0.1213,0.0474,-3.0823,6.4392,-2.9297,2024-02-12 15:49:44.414,0.0
-0.8467,-0.1401,0.0203,-2.7008,5.6915,-3.0975,2024-02-12 15:49:44.438,0.0
-0.8325,-0.1287,-0.0063,-3.0975,2.6779,-2.6245,2024-02-12 15:49:44.446,0.0
-0.8042,-0.136,-0.0171,-2.6703,2.2888,-2.4261,2024-02-12 15:49:44.471,0.0
-0.7976,-0.1294,-0.0444,-1.9989,2.2583,-2.4261,2024-02-12 15:49:44.487,0.0
-0.7495,-0.1309,-0.0869,-2.2583,3.7613,-2.3117,2024-02-12 15:49:44.520,0.0
-0.728,-0.1321,-0.1233,-5.5771,9.3079,-4.0283,2024-02-12 15:49:44.520,0.0
-0.7092,-0.1519,-0.1113,-6.6833,12.5351,-5.9662,2024-02-12 15:49:44.537,
-0.7004,-0.1516,-0.0862,-6.0654,15.831,-7.1487,2024-02-12 15:49:44.553,0.0
-0.6782,-0.1282,-0.1099,-5.4626,19.9203,-7.4463,2024-02-12 15:49:44.577,0.0
-0.6394,-0.1321,-0.1624,-6.0425,20.1721,-7.3853,2024-02-12 15:49:44.585,0.0
-0.575,-0.1326,-0.135,-8.8806,22.4838,-9.1782,2024-02-12 15:49:44.612,0.0
-0.572,-0.1167,-0.0535,-10.8643,38.559,-12.8174,2024-02-12 15:49:44.629,0.0
-0.6042,-0.1418,-0.0386,-11.4899,59.1202,-16.4032,2024-02-12 15:49:44.646,0.0
-0.6804,-0.1348,-0.0381,-12.0926,74.3179,-18.7759,2024-02-12 15:49:44.662,0.0
-0.769,-0.1321,-0.0447,-12.0926,74.8367,-19.4092,2024-02-12 15:49:44.687,0.0
-0.8457,-0.1458,-0.0417,-10.0327,64.003,-16.3956,2024-02-12 15:49:44.703,0.0
-0.8748,-0.1404,-0.0535,-7.4081,43.2053,-12.2147,2024-02-12 15:49:44.719,0.0
-0.8657,-0.1448,-0.022,-7.6065,14.6561,-6.9733,2024-02-12 15:49:44.743,0.0
-0.8081,-0.1396,0.0134,-4.1275,-2.6245,-5.455,2024-02-12 15:49:44.752,0.0
-0.6997,-0.1472,0.0188,-4.5853,-5.806,-8.316,2024-02-12 15:49:44.777,0.0
-0.7104,-0.1411,0.0498,-5.1193,11.2686,-13.1302,2024-02-12 15:49:44.794,0.0
-0.7732,-0.1545,0.0974,-0.8011,20.7367,-15.1749,2024-02-12 15:49:44.811,0.0
-0.8613,-0.1704,0.0771,5.3253,12.3672,-13.0768,2024-02-12 15:49:44.828,0.0
-0.8596,-0.1929,0.0225,8.5907,-7.4081,-6.4926,2024-02-12 15:49:44.852,0.0
-0.8423,-0.2463,0.0242,7.4997,-23.6969,-2.4948,2024-02-12 15:49:44.860,0.0
-0.7478,-0.2322,0.0457,2.6321,-6.8893,-9.2392,2024-02-12 15:49:44.885,0.0
-0.7664,-0.1667,0.126,5.8975,-1.6785,-12.7487,2024-02-12 15:49:44.910,
-0.8481,-0.124,0.0862,10.643,3.6774,-13.6795,2024-02-12 15:49:44.919,0.0
-0.9548,-0.1296,-0.0535,9.5215,-1.6785,-8.5907,2024-02-12 15:49:44.943,0.0
-0.9429,-0.2085,-0.0618,5.9204,-13.4888,-2.6093,2024-02-12 15:49:44.960,0.0
-0.823,-0.251,-0.0015,4.509,-23.1247,2.7084,2024-02-12 15:49:44.976,0.0
-0.7112,-0.2349,0.0173,4.0207,-26.9547,3.1357,2024-02-12 15:49:44.992,0.0
-0.6863,-0.158,0.0374,3.0365,-22.8271,-2.388,2024-02-12 15:49:45.016,0.0
-0.7078,-0.1245,0.0691,2.1896,-19.8441,-7.1411,2024-02-12 15:49:45.032,0.0
-0.8186,-0.072,0.0825,4.2877,-23.7503,-5.9052,2024-02-12 15:49:45.048,0.0
-0.8955,-0.1323,0.0933,4.5853,-29.3808,1.976,2024-02-12 15:49:45.072,0.0
-0.854,-0.1543,0.0981,3.7918,-34.5535,5.4932,2024-02-12 15:49:45.081,0.0
-0.8694,-0.2024,0.0781,4.5166,-34.8282,2.2354,2024-02-12 15:49:45.097,0.0
-0.9272,-0.197,0.0237,7.9575,-36.5372,0.3738,2024-02-12 15:49:45.121,0.0
-0.9565,-0.2056,-0.0027,11.1389,-41.9388,6.6299,2024-02-12 15:49:45.137,0.0
-0.8582,-0.2375,0.0698,13.9771,-49.2401,14.0686,2024-02-12 15:49:45.153,0.0
-0.8086,-0.1758,0.0708,12.1613,-46.8674,10.2768,2024-02-12 15:49:45.177,0.0
-0.8638,-0.1035,0.072,10.5057,-44.7464,7.8049,2024-02-12 15:49:45.219,0.0
-0.8928,-0.1101,0.0676,9.6436,-46.7148,7.9346,2024-02-12 15:49:45.219,0.0
-0.8584,-0.1499,0.105,9.5825,-52.597,8.1406,2024-02-12 15:49:45.227,0.0
-0.8152,-0.1777,0.127,8.9722,-54.985,4.921,2024-02-12 15:49:45.243,0.0
-0.7515,-0.1519,0.1409,6.0196,-50.0412,1.4801,2024-02-12 15:49:45.260,
-0.7505,-0.0933,0.2271,0.8011,-29.7852,-4.3259,2024-02-12 15:49:45.284,0.0
-0.8667,-0.0693,0.3206,-0.6027,-15.1367,-8.1482,2024-02-12 15:49:45.309,0.0
-0.9453,-0.0732,0.2065,-2.3346,0.4349,-5.6,2024-02-12 15:49:45.317,0.0
-1.0652,-0.1313,0.0952,-4.7607,-3.1662,2.4185,2024-02-12 15:49:45.341,0.0
-1.1772,-0.2817,-0.0068,-0.2213,-27.2522,13.5651,2024-02-12 15:49:45.352,0.0
-1.022,-0.301,-0.0698,0.5264,-38.9633,22.4457,2024-02-12 15:49:45.377,0.0
-0.8916,-0.2334,0.0479,0.7782,-44.8074,21.904,2024-02-12 15:49:45.385,0.0
-0.8198,-0.1536,0.1577,2.5558,-54.7485,23.8419,2024-02-12 15:49:45.409,0.0
-0.8577,-0.1257,0.2935,4.1351,-67.0853,21.7361,2024-02-12 15:49:45.425,0.0
-0.845,-0.123,0.3484,3.8834,-72.3648,23.8113,2024-02-12 15:49:45.441,0.0
-0.8311,-0.124,0.3643,3.6469,-71.7239,24.8642,2024-02-12 15:49:45.465,0.0
-0.7434,-0.1084,0.3889,4.2648,-71.3577,25.5737,2024-02-12 15:49:45.481,0.0
-0.6755,-0.0994,0.4163,4.9744,-67.6804,23.3078,2024-02-12 15:49:45.497,0.0
-0.7119,-0.0835,0.4082,4.4937,-55.9158,18.4174,2024-02-12 15:49:45.522,0.0
-0.8096,-0.0881,0.428,5.455,-52.5208,15.5334,2024-02-12 15:49:45.535,0.0
-0.8323,-0.0667,0.4644,7.9041,-57.0679,15.831,2024-02-12 15:49:45.559,0.0
-0.9663,-0.0623,0.5068,8.4076,-65.9714,17.6315,2024-02-12 15:49:45.575,0.0
-0.9607,-0.0447,0.5728,6.8207,-65.9866,19.4626,2024-02-12 15:49:45.591,0.0
-0.9609,0.0017,0.6423,5.0507,-64.1556,19.0125,2024-02-12 15:49:45.607,0.0
-0.8982,0.02,0.6963,3.2883,-58.0063,17.2043,2024-02-12 15:49:45.631,
-0.885,0.0117,0.7163,4.2267,-44.2352,17.2653,2024-02-12 15:49:45.648,0.0
-0.8835,0.0059,0.7024,4.1962,-26.0773,15.8081,2024-02-12 15:49:45.664,0.0
-0.832,0.0085,0.6736,3.6316,-16.8152,12.8174,2024-02-12 15:49:45.688,0.0
-0.8384,-0.0024,0.656,2.5787,-12.6266,9.4604,2024-02-12 15:49:45.712,0.0
-0.8201,-0.0178,0.6274,1.3199,-11.8332,5.9128,2024-02-12 15:49:45.720,0.0
-0.7871,-0.0103,0.6062,1.7776,-16.4185,4.0588,2024-02-12 15:49:45.744,0.0
-0.7339,0.0059,0.5896,3.1281,-19.4473,3.0289,2024-02-12 15:49:45.760,0.0
-0.7312,0.0269,0.5718,3.2196,-18.2343,3.3569,2024-02-12 15:49:45.772,0.0
-0.7114,0.0237,0.5479,0.9537,-16.4642,3.1128,2024-02-12 15:49:45.796,0.0
-0.7239,0.012,0.5579,-1.0223,-18.3411,3.1052,2024-02-12 15:49:45.812,0.0
-0.7185,-0.0066,0.5522,-1.915,-19.3481,2.7466,2024-02-12 15:49:45.828,0.0
-0.7261,-0.0244,0.5581,-3.54,-18.9972,3.0365,2024-02-12 15:49:45.845,0.0
-0.7227,-0.03,0.5645,-5.2185,-18.9362,2.9068,2024-02-12 15:49:45.864,0.0
-0.7136,-0.0239,0.5627,-7.2403,-19.5389,1.3046,2024-02-12 15:49:45.888,0.0
-0.6985,-0.0164,0.5701,-8.9264,-19.3481,-0.5569,2024-02-12 15:49:45.904,0.0
-0.6821,-0.0342,0.5793,-9.7885,-16.6168,-1.7624,2024-02-12 15:49:45.920,0.0
-0.707,-0.0464,0.571,-10.4218,-12.5885,-2.6627,2024-02-12 15:49:45.945,0.0
-0.7419,-0.0476,0.5852,-10.5972,-13.7253,-3.1433,2024-02-12 15:49:45.953,0.0
-0.7505,-0.0405,0.6074,-10.582,-18.3945,-2.8534,2024-02-12 15:49:45.980,0.0
-0.7375,-0.0349,0.6326,-10.7574,-21.4386,-1.915,2024-02-12 15:49:45.996,
-0.7244,-0.0347,0.6516,-10.5896,-21.4844,-1.0834,2024-02-12 15:49:46.021,0.0
-0.71,-0.031,0.6445,-10.2158,-20.5383,-0.2136,2024-02-12 15:49:46.029,0.0
-0.7019,-0.0393,0.6484,-10.0555,-19.2566,0.5569,2024-02-12 15:49:46.054,0.0
-0.6968,-0.0425,0.6726,-9.079,-18.4021,0.946,2024-02-12 15:49:46.070,0.0
-0.6794,-0.0562,0.6772,-7.7286,-17.189,0.2518,2024-02-12 15:49:46.086,0.0
-0.6775,-0.0549,0.6768,-6.4316,-15.2435,-0.5875,2024-02-12 15:49:46.119,0.0
-0.6677,-0.0461,0.6934,-5.4855,-13.3896,-1.236,2024-02-12 15:49:46.127,0.0
-0.675,-0.0374,0.6934,-4.8676,-10.8948,-1.7548,2024-02-12 15:49:46.142,0.0
-0.6685,-0.0374,0.7036,-4.0512,-9.0408,-1.0223,2024-02-12 15:49:46.158,0.0
-0.6699,-0.0393,0.7136,-2.6093,-8.6594,-0.3433,2024-02-12 15:49:46.178,0.0
-0.6641,-0.0352,0.7139,-1.5259,-7.9956,0.7858,2024-02-12 15:49:46.202,0.0
-0.6694,-0.0386,0.696,-0.9613,-7.2021,1.1902,2024-02-12 15:49:46.218,0.0
-0.6577,-0.041,0.6958,-0.946,-5.8823,1.7548,2024-02-12 15:49:46.235,0.0
-0.6738,-0.0537,0.6963,-1.709,-5.7068,2.1667,2024-02-12 15:49:46.251,0.0
-0.6687,-0.0469,0.6882,-2.8763,-6.7673,2.449,2024-02-12 15:49:46.270,0.0
-0.6545,-0.0374,0.6785,-4.3335,-5.661,1.5793,2024-02-12 15:49:46.286,0.0
-0.6602,-0.0374,0.6855,-4.9515,-3.9673,1.3657,2024-02-12 15:49:46.311,0.0
-0.6729,-0.0413,0.6772,-4.9133,-3.3112,1.2894,2024-02-12 15:49:46.335,0.0
-0.676,-0.0349,0.6785,-5.0583,-3.54,1.1978,2024-02-12 15:49:46.343,0.0
-0.6729,-0.0337,0.6729,-4.631,-3.1204,1.3733,2024-02-12 15:49:46.359,
-0.6641,-0.0315,0.6677,-4.6463,-1.6632,0.9613,2024-02-12 15:49:46.383,0.0
-0.668,-0.0232,0.6707,-4.5166,-0.7401,0.4349,2024-02-12 15:49:46.391,0.0
-0.675,-0.0146,0.6897,-3.9215,0.4196,0.0992,2024-02-12 15:49:46.416,0.0
-0.678,-0.0098,0.6802,-3.1204,0.6256,0.1831,2024-02-12 15:49:46.440,0.0
-0.6826,-0.012,0.6821,-2.9373,0.8545,0.5798,2024-02-12 15:49:46.456,0.0
-0.6738,-0.0164,0.6926,-2.9449,0.7019,0.7935,2024-02-12 15:49:46.472,0.0
-0.6694,-0.0198,0.687,-2.5864,0.1297,1.0834,2024-02-12 15:49:46.488,0.0
-0.6648,-0.02,0.6904,-2.2812,0.3128,1.0834,2024-02-12 15:49:46.512,0.0
-0.6709,-0.0288,0.7004,-2.3422,0.2899,0.946,2024-02-12 15:49:46.528,0.0
-0.6633,-0.0254,0.6941,-2.5024,0.0687,0.7629,2024-02-12 15:49:46.544,0.0
-0.6689,-0.0283,0.687,-2.5711,0.267,0.351,2024-02-12 15:49:46.560,0.0
-0.6653,-0.0264,0.6978,-2.6779,0.5951,0.0076,2024-02-12 15:49:46.580,0.0
-0.6707,-0.0298,0.6848,-2.5177,0.5875,-0.1297,2024-02-12 15:49:46.597,0.0
-0.677,-0.0208,0.6838,-2.2202,1.1063,0.3357,2024-02-12 15:49:46.621,0.0
-0.6726,-0.0249,0.6833,-2.4796,1.4038,0.6485,2024-02-12 15:49:46.637,0.0
-0.6743,-0.0247,0.6907,-2.4872,1.4267,0.9766,2024-02-12 15:49:46.653,0.0
-0.6658,-0.0229,0.6907,-1.9608,1.4801,0.8698,2024-02-12 15:49:46.670,0.0
-0.6582,-0.0259,0.687,-2.0828,2.4261,0.618,2024-02-12 15:49:46.689,0.0
-0.6621,-0.0242,0.6829,-2.3193,3.5095,-0.267,2024-02-12 15:49:46.714,0.0
-0.6672,-0.0337,0.6909,-2.0676,3.7308,-0.0839,2024-02-12 15:49:46.730,
-0.6772,-0.0244,0.6875,-1.7548,3.1815,0.3128,2024-02-12 15:49:46.747,0.0
-0.6733,-0.0195,0.6838,-1.6022,3.4561,0.3738,2024-02-12 15:49:46.768,0.0
-0.6697,-0.021,0.6777,-1.5106,4.3945,0.1144,2024-02-12 15:49:46.776,0.0
-0.6689,-0.0291,0.6816,-1.77,4.6158,0.3967,2024-02-12 15:49:46.801,0.0
-0.6787,-0.0293,0.6897,-1.5717,4.6387,0.7248,2024-02-12 15:49:46.817,0.0
-0.6643,-0.0217,0.6912,-1.5182,4.7379,0.9232,2024-02-12 15:49:46.841,0.0
-0.666,-0.0283,0.6917,-1.7395,5.6,0.3357,2024-02-12 15:49:46.857,0.0
-0.6619,-0.0259,0.6785,-2.5177,7.7972,-0.7324,2024-02-12 15:49:46.874,0.0
-0.6587,-0.0181,0.6877,-2.7847,10.1242,-1.2436,2024-02-12 15:49:46.891,0.0
-0.6748,-0.019,0.6875,-1.9989,10.6201,-1.1597,2024-02-12 15:49:46.907,0.0
-0.6804,-0.019,0.6741,-2.2125,9.8495,-0.8545,2024-02-12 15:49:46.923,0.0
-0.6814,-0.0154,0.6694,-2.4872,7.3853,-0.9689,2024-02-12 15:49:46.939,0.0
-0.6768,-0.0085,0.6689,-2.7847,7.782,-0.9766,2024-02-12 15:49:46.972,0.0
-0.6733,-0.0164,0.6765,-3.2883,10.1318,-0.6409,2024-02-12 15:49:46.989,0.0
-0.6672,-0.0125,0.6733,-3.6469,14.1754,-0.6332,2024-02-12 15:49:46.999,0.0
-0.6628,-0.0266,0.6758,-3.7613,18.6539,-0.7935,2024-02-12 15:49:47.024,0.0
-0.675,-0.0344,0.6694,-3.0899,19.928,-1.9226,2024-02-12 15:49:47.040,0.0
-0.6895,-0.0334,0.6587,-2.7618,20.195,-3.0899,2024-02-12 15:49:47.048,0.0
-0.6934,-0.0293,0.6653,-2.8534,20.607,-3.6545,2024-02-12 15:49:47.072,0.0
-0.6831,-0.0249,0.6663,-3.0899,22.728,-4.3869,2024-02-12 15:49:47.088,
-0.6746,-0.0122,0.6689,-2.5253,25.0244,-4.57,2024-02-12 15:49:47.104,0.0
-0.6848,-0.0186,0.6614,-1.564,27.9083,-4.4861,2024-02-12 15:49:47.128,0.0
-0.6948,-0.0237,0.6458,-1.0071,28.8391,-4.5013,2024-02-12 15:49:47.145,0.0
-0.6895,-0.0254,0.6367,-0.4578,29.5563,-4.9896,2024-02-12 15:49:47.162,0.0
-0.6875,-0.0347,0.6311,-0.4425,30.1285,-6.3171,2024-02-12 15:49:47.178,0.0
-0.6792,-0.0308,0.6323,-0.3204,30.6015,-7.5684,2024-02-12 15:49:47.194,0.0
-0.6831,-0.0374,0.6216,-0.145,31.8527,-8.3466,2024-02-12 15:49:47.219,0.0
-0.6951,-0.0408,0.6338,0.1068,33.4549,-8.8882,2024-02-12 15:49:47.236,0.0
-0.6904,-0.0562,0.6287,-0.3967,35.3165,-9.7046,2024-02-12 15:49:47.253,0.0
-0.6995,-0.0481,0.6147,-1.0757,36.8729,-11.9629,2024-02-12 15:49:47.277,0.0
-0.7166,-0.0508,0.6226,-1.1444,36.7355,-14.3433,2024-02-12 15:49:47.285,0.0
-0.7239,-0.0437,0.5984,-0.9613,35.1715,-15.0909,2024-02-12 15:49:47.309,0.0
-0.7595,-0.0249,0.5896,-0.1526,31.5399,-13.7177,2024-02-12 15:49:47.325,0.0
-0.7856,-0.0344,0.5601,-0.5646,27.6337,-9.4376,2024-02-12 15:49:47.349,0.0
-0.7656,-0.0374,0.5227,-1.3428,24.8566,-9.8038,2024-02-12 15:49:47.365,0.0
-0.7915,-0.0725,0.5015,-3.5477,22.4762,-13.7634,2024-02-12 15:49:47.382,0.0
-0.7854,-0.085,0.4441,-6.6986,20.5536,-20.0348,2024-02-12 15:49:47.406,0.0
-0.7966,-0.0654,0.4558,-9.3613,18.6234,-25.444,2024-02-12 15:49:47.422,0.0
-0.803,-0.0618,0.4521,-11.0474,17.5629,-28.4576,2024-02-12 15:49:47.439,0.0
-0.8533,-0.0671,0.4778,-12.5122,22.3541,-28.511,2024-02-12 15:49:47.455,
-0.905,-0.0667,0.5085,-15.4495,31.3034,-25.383,2024-02-12 15:49:47.471,0.0
-0.915,-0.0574,0.4705,-17.334,38.9633,-23.3765,2024-02-12 15:49:47.496,0.0
-0.9883,0.0093,0.5769,-17.1051,37.3154,-19.4092,2024-02-12 15:49:47.512,0.0
-0.9414,-0.0454,0.585,-16.2964,32.7301,-15.9531,2024-02-12 15:49:47.529,0.0
-0.8047,-0.1028,0.5547,-14.8392,34.8434,-17.2806,2024-02-12 15:49:47.545,0.0
-0.9014,-0.1543,0.6157,-9.0179,37.3306,-18.1351,2024-02-12 15:49:47.561,0.0
-0.9683,-0.1726,0.6003,-4.8218,45.2957,-16.8686,2024-02-12 15:49:47.578,0.0
-0.9316,-0.1841,0.512,-3.0746,47.7524,-16.1285,2024-02-12 15:49:47.602,0.0
-0.8853,-0.1614,0.4097,-4.3335,53.5583,-15.8463,2024-02-12 15:49:47.620,0.0
-0.8735,-0.1799,0.3911,-4.6844,59.2651,-17.2577,2024-02-12 15:49:47.637,0.0
-0.9045,-0.2219,0.3896,-2.4185,62.5305,-17.7841,2024-02-12 15:49:47.654,0.0
-0.8821,-0.196,0.3552,1.3885,61.5234,-17.1432,2024-02-12 15:49:47.671,0.0
-0.896,-0.1636,0.3191,3.0518,59.3872,-15.4877,2024-02-12 15:49:47.696,0.0
-0.9031,-0.176,0.2859,2.3422,53.5583,-13.8016,2024-02-12 15:49:47.712,0.0
-0.9197,-0.1731,0.2642,1.1902,48.7671,-10.91,2024-02-12 15:49:47.730,0.0
-0.8982,-0.1641,0.2476,0.2518,49.7208,-7.0877,2024-02-12 15:49:47.754,0.0
-0.8774,-0.156,0.241,0.6027,52.597,-5.7144,2024-02-12 15:49:47.762,0.0
-0.8801,-0.1748,0.2312,0.8163,54.8248,-5.8975,2024-02-12 15:49:47.780,0.0
-0.8796,-0.1643,0.2031,0.2747,61.058,-7.0038,2024-02-12 15:49:47.805,0.0
-0.8943,-0.187,0.2048,0.4044,68.0008,-7.3318,2024-02-12 15:49:47.821,
-0.8997,-0.2332,0.1707,0.351,69.4885,-7.37,2024-02-12 15:49:47.837,0.0
-0.8784,-0.2295,0.1216,-0.4578,65.979,-7.7286,2024-02-12 15:49:47.853,0.0
-0.875,-0.2207,0.1133,-0.6638,59.2575,-8.1711,2024-02-12 15:49:47.877,0.0
-0.8672,-0.219,0.1277,-0.3052,52.4139,-6.6452,2024-02-12 15:49:47.910,0.0
-0.8508,-0.1953,0.0884,-0.6714,45.99,-6.3705,2024-02-12 15:49:47.918,0.0
-0.8411,-0.1836,0.0813,-1.6479,40.1154,-5.7068,2024-02-12 15:49:47.929,0.0
-0.7866,-0.1777,0.0928,-2.7618,36.6211,-5.6305,2024-02-12 15:49:47.954,0.0
-0.7781,-0.1768,0.1116,-4.7226,35.7895,-4.9744,2024-02-12 15:49:47.970,0.0
-0.7786,-0.1892,0.1033,-5.1041,31.7383,-4.6768,2024-02-12 15:49:47.987,0.0
-0.7908,-0.1931,0.0947,-4.2038,20.3552,-3.6316,2024-02-12 15:49:48.003,0.0
-0.7642,-0.2009,0.0498,-3.1815,14.534,-2.8,2024-02-12 15:49:48.029,0.0
-0.7817,-0.1987,0.051,-2.8458,11.0245,-2.9678,2024-02-12 15:49:48.037,0.0
-0.7959,-0.2056,0.0552,-2.8,9.4833,-2.6093,2024-02-12 15:49:48.054,0.0
-0.8147,-0.1782,0.062,-3.7766,9.0408,-0.6409,2024-02-12 15:49:48.079,0.0
-0.8171,-0.1738,0.0598,-4.8523,8.6365,1.3275,2024-02-12 15:49:48.088,0.0
-0.7925,-0.1746,0.0664,-5.5084,9.4604,3.4103,2024-02-12 15:49:48.112,0.0
-0.8079,-0.1804,0.0593,-4.5395,7.8888,4.6005,2024-02-12 15:49:48.138,0.0
-0.7869,-0.1934,0.0417,-4.8523,8.0643,5.5008,2024-02-12 15:49:48.146,0.0
-0.8132,-0.1848,0.0439,-4.9515,9.2926,6.3858,2024-02-12 15:49:48.180,0.0
-0.8132,-0.1836,0.0471,-4.5547,9.903,8.606,2024-02-12 15:49:48.188,
-0.8179,-0.1826,0.0586,-3.9673,8.2016,10.5362,2024-02-12 15:49:48.204,0.0
-0.8044,-0.1875,0.0349,-4.2267,3.9978,12.2528,2024-02-12 15:49:48.220,0.0
-0.7668,-0.167,0.0518,-3.6697,0.7553,11.879,2024-02-12 15:49:48.237,0.0
-0.7761,-0.155,0.0427,-2.4796,4.2496,11.7188,2024-02-12 15:49:48.271,0.0
-0.7656,-0.1494,0.0361,-2.6932,4.3259,10.2386,2024-02-12 15:49:48.280,0.0
-0.7573,-0.1353,0.0195,-3.1052,1.2741,8.7814,2024-02-12 15:49:48.296,0.0
-0.7583,-0.1406,0.0459,-3.1204,-1.6708,6.9656,2024-02-12 15:49:48.312,0.0
-0.7615,-0.1274,0.0588,-1.9836,-4.5013,5.7755,2024-02-12 15:49:48.329,0.0
-0.7446,-0.1294,0.0388,-0.4883,-8.0948,5.4092,2024-02-12 15:49:48.345,0.0
-0.7336,-0.1494,0.0234,1.3123,-11.9019,6.6528,2024-02-12 15:49:48.370,0.0
-0.7256,-0.1592,0.0242,2.2888,-18.4631,4.9438,2024-02-12 15:49:48.395,0.0
-0.7278,-0.1472,0.0295,3.3035,-24.1699,5.806,2024-02-12 15:49:48.404,0.0
-0.6965,-0.144,0.022,5.2643,-28.2364,5.9967,2024-02-12 15:49:48.420,0.0
-0.6992,-0.1399,0.0117,6.4468,-30.9143,6.8207,2024-02-12 15:49:48.437,0.0
-0.7073,-0.1438,0.0273,7.7515,-27.6718,6.6147,2024-02-12 15:49:48.454,0.0
-0.7388,-0.1436,0.0269,10.2997,-23.3002,6.134,2024-02-12 15:49:48.478,0.0
-0.7908,-0.1438,0.0278,13.2141,-21.7438,7.7896,2024-02-12 15:49:48.494,0.0
-0.8215,-0.1824,0.0376,18.3334,-30.5634,9.9487,2024-02-12 15:49:48.511,0.0
-0.8455,-0.1963,0.021,20.9503,-40.947,13.0234,2024-02-12 15:49:48.528,0.0
-0.8152,-0.196,0.0337,22.728,-48.5611,13.8016,2024-02-12 15:49:48.545,
-0.7627,-0.1382,0.0073,22.8729,-51.4679,13.0081,2024-02-12 15:49:48.561,0.0
-0.6826,-0.1035,-0.0513,20.8206,-46.6003,10.8185,2024-02-12 15:49:48.598,0.0
-0.624,-0.0879,-0.0029,16.3345,-33.5312,5.4092,2024-02-12 15:49:48.606,0.0
-0.7053,-0.1023,0.0996,14.7476,-14.5111,1.5717,2024-02-12 15:49:48.638,0.0
-0.6692,-0.1011,0.0081,13.3667,3.9597,-1.9684,2024-02-12 15:49:48.662,0.0
-0.7205,-0.0784,-0.0386,9.5291,13.9847,-4.5395,2024-02-12 15:49:48.670,0.0
-0.7612,-0.0762,-0.0815,5.043,21.2479,-6.2027,2024-02-12 15:49:48.686,0.0
-0.8176,-0.1121,-0.0601,-1.5717,29.007,-7.7057,2024-02-12 15:49:48.711,0.0
-0.916,-0.1218,-0.0042,-3.685,35.7895,-7.164,2024-02-12 15:49:48.720,0.0
-0.9583,-0.1216,-0.0293,-5.2795,29.1901,-3.4332,2024-02-12 15:49:48.736,0.0
-0.9465,-0.1089,-0.0251,-7.6141,12.1689,1.2131,2024-02-12 15:49:48.752,0.0
-0.885,-0.1218,0.0315,-8.6288,-4.0283,1.9913,2024-02-12 15:49:48.784,0.0
-0.8708,-0.1616,0.0569,-8.5983,-7.1411,0.9918,2024-02-12 15:49:48.792,0.0
-0.8596,-0.1743,0.0483,-8.11,-6.5918,1.0147,2024-02-12 15:49:48.808,0.0
-0.8403,-0.1531,0.0647,-5.4779,-4.0588,2.6398,2024-02-12 15:49:48.832,0.0
-0.821,-0.1328,0.0583,-2.6474,-2.861,3.2196,2024-02-12 15:49:48.849,0.0
-0.7744,-0.123,0.0828,-2.6169,-4.0817,1.5488,2024-02-12 15:49:48.857,0.0
-0.7417,-0.1333,0.1165,-0.9155,2.0676,-3.7231,2024-02-12 15:49:48.882,0.0
-0.7585,-0.1458,0.1309,0.9384,13.2828,-5.8365,2024-02-12 15:49:48.898,0.0
