acceleration_x,acceleration_y,acceleration_z,gyroscope_x,gyroscope_y,gyroscope_z,timestamp,label
-3438,-119,238,-423,206,-177,2024-02-05 15:48:08.146,0.0
-3481,-119,222,-249,163,-188,2024-02-05 15:48:08.205,0.0
-3451,-84,223,-129,152,-198,2024-02-05 15:48:08.278,0.0
-3474,-61,259,-108,172,-185,2024-02-05 15:48:08.319,0.0
-3431,-58,223,-139,213,-185,2024-02-05 15:48:08.367,0.0
-3446,-77,217,-112,247,-163,2024-02-05 15:48:08.435,0.0
-3450,-86,244,-65,139,-190,2024-02-05 15:48:08.484,0.0
-3471,-81,235,-53,198,-165,2024-02-05 15:48:08.549,0.0
-3459,-83,222,-57,222,-156,2024-02-05 15:48:08.599,0.0
-3445,-72,217,-86,215,-150,2024-02-05 15:48:08.657,0.0
-3470,-63,223,-98,237,-167,2024-02-05 15:48:08.715,0.0
-3443,-69,213,-120,193,-167,2024-02-05 15:48:08.764,0.0
-3472,-78,237,-113,205,-177,2024-02-05 15:48:08.831,0.0
-3459,-82,201,-90,184,-175,2024-02-05 15:48:08.879,0.0
-3457,-76,225,-95,183,-214,2024-02-05 15:48:08.937,0.0
-3464,-87,246,-100,228,-143,2024-02-05 15:48:09.001,0.0
-3443,-73,239,-152,175,-157,2024-02-05 15:48:09.051,0.0
-3448,-61,226,-142,215,-200,2024-02-05 15:48:09.116,0.0
-3497,-80,214,-161,139,-148,2024-02-05 15:48:09.174,0.0
-3466,-53,200,-189,155,-166,2024-02-05 15:48:09.222,0.0
-3468,-52,187,-251,185,-153,2024-02-05 15:48:09.280,0.0
-3459,-96,181,-332,262,-124,2024-02-05 15:48:09.330,0.0
-3480,-63,242,-337,263,-136,2024-02-05 15:48:09.395,0.0
-3461,-66,159,-268,160,-142,2024-02-05 15:48:09.447,0.0
-3467,-66,242,-213,234,-181,2024-02-05 15:48:09.506,0.0
-3439,-49,204,-196,176,-142,2024-02-05 15:48:09.587,0.0
-3483,-73,247,-122,163,-150,2024-02-05 15:48:09.619,0.0
-3440,-69,205,-151,149,-171,2024-02-05 15:48:09.725,0.0
-3475,-65,208,-158,99,-167,2024-02-05 15:48:09.733,0.0
-3464,-66,173,-205,103,-147,2024-02-05 15:48:09.785,0.0
-3462,-76,216,-191,194,-157,2024-02-05 15:48:09.842,0.0
-3432,-65,225,-225,217,-176,2024-02-05 15:48:09.899,0.0
-3490,-81,242,-201,217,-191,2024-02-05 15:48:10.004,0.0
-3470,-83,214,-196,132,-185,2024-02-05 15:48:10.004,0.0
-3464,-57,240,-174,131,-173,2024-02-05 15:48:10.072,0.0
-3466,-45,251,-92,190,-179,2024-02-05 15:48:10.129,0.0
-3459,-59,247,-96,199,-177,2024-02-05 15:48:10.181,0.0
-3445,-59,228,-114,186,-167,2024-02-05 15:48:10.302,0.0
-3465,-59,225,-159,191,-158,2024-02-05 15:48:10.302,0.0
-3456,-73,233,-150,140,-176,2024-02-05 15:48:10.351,0.0
-3451,-60,234,-145,171,-182,2024-02-05 15:48:10.408,0.0
-3489,-58,219,-216,211,-159,2024-02-05 15:48:10.465,0.0
-3482,-58,220,-256,151,-178,2024-02-05 15:48:10.530,0.0
-3436,-72,234,-243,134,-173,2024-02-05 15:48:10.581,0.0
-3461,-80,192,-156,131,-165,2024-02-05 15:48:10.635,0.0
-3481,-55,200,-128,87,-167,2024-02-05 15:48:10.690,0.0
-3457,-48,256,-204,77,-175,2024-02-05 15:48:10.748,0.0
-3499,-63,275,-195,89,-200,2024-02-05 15:48:10.806,0.0
-3454,-66,203,-121,13,-167,2024-02-05 15:48:10.863,0.0
-3463,-67,229,-75,123,-196,2024-02-05 15:48:10.919,0.0
-3440,-41,238,-123,92,-199,2024-02-05 15:48:10.976,0.0
-3461,-35,225,-255,212,-136,2024-02-05 15:48:11.042,0.0
-3440,-73,218,-305,284,-148,2024-02-05 15:48:11.092,0.0
-3488,-68,224,-312,284,-141,2024-02-05 15:48:11.150,0.0
-3463,-73,205,-229,121,-170,2024-02-05 15:48:11.202,0.0
-3435,-75,235,-283,53,-154,2024-02-05 15:48:11.260,0.0
-3440,-59,215,-278,140,-170,2024-02-05 15:48:11.326,0.0
-3433,-76,253,-299,262,-165,2024-02-05 15:48:11.376,0.0
-3467,-78,262,-191,317,-131,2024-02-05 15:48:11.425,0.0
-3470,-78,249,18,192,-166,2024-02-05 15:48:11.483,0.0
-3473,-70,246,23,166,-191,2024-02-05 15:48:11.558,0.0
-3460,-66,207,-81,147,-175,2024-02-05 15:48:11.598,0.0
-3444,-44,230,-184,180,-188,2024-02-05 15:48:11.657,0.0
-3457,-62,228,-186,208,-191,2024-02-05 15:48:11.714,0.0
-3452,-63,230,-269,194,-134,2024-02-05 15:48:11.771,0.0
-3456,-73,237,-175,202,-162,2024-02-05 15:48:11.837,0.0
-3443,-52,253,-182,210,-145,2024-02-05 15:48:11.886,0.0
-3455,-60,261,-155,200,-171,2024-02-05 15:48:11.943,0.0
-3445,-66,232,-162,197,-175,2024-02-05 15:48:12.008,0.0
-3441,-43,272,-119,198,-170,2024-02-05 15:48:12.075,0.0
-3469,-43,255,-158,218,-164,2024-02-05 15:48:12.116,0.0
-3433,-41,225,-221,196,-176,2024-02-05 15:48:12.175,0.0
-3473,-58,223,-192,203,-199,2024-02-05 15:48:12.225,0.0
-3478,-52,233,-231,182,-175,2024-02-05 15:48:12.291,0.0
-3452,-45,229,-198,241,-175,2024-02-05 15:48:12.363,0.0
-3492,-68,224,-196,259,-163,2024-02-05 15:48:12.404,0.0
-3477,-102,251,-85,83,-175,2024-02-05 15:48:12.452,0.0
-3431,-58,203,57,22,-169,2024-02-05 15:48:12.512,0.0
-3456,-39,229,37,181,-177,2024-02-05 15:48:12.577,0.0
-3460,-75,217,-179,207,-153,2024-02-05 15:48:12.625,0.0
-3447,-63,204,-244,216,-153,2024-02-05 15:48:12.683,0.0
-3449,-70,221,-183,145,-161,2024-02-05 15:48:12.733,0.0
-3444,-62,222,-91,289,-138,2024-02-05 15:48:12.799,0.0
-3468,-53,172,-54,228,-158,2024-02-05 15:48:12.848,0.0
-3470,-43,205,-67,250,-171,2024-02-05 15:48:12.913,0.0
-3436,-44,238,-52,201,-169,2024-02-05 15:48:12.961,0.0
-3446,-38,240,-125,191,-160,2024-02-05 15:48:13.025,0.0
-3463,-17,234,-237,234,-172,2024-02-05 15:48:13.074,0.0
-3434,-49,199,-288,202,-155,2024-02-05 15:48:13.134,0.0
-3469,-44,203,-264,207,-142,2024-02-05 15:48:13.201,0.0
-3464,-43,200,-303,157,-170,2024-02-05 15:48:13.250,0.0
-3450,-51,243,-233,144,-180,2024-02-05 15:48:13.308,0.0
-3477,-49,255,-211,130,-177,2024-02-05 15:48:13.361,0.0
-3455,-46,250,-233,118,-174,2024-02-05 15:48:13.417,0.0
-3406,-44,234,-211,103,-153,2024-02-05 15:48:13.477,0.0
-3476,-59,227,-179,185,-164,2024-02-05 15:48:13.537,0.0
-3458,-36,222,-238,177,-166,2024-02-05 15:48:13.593,0.0
-3469,-39,229,-245,165,-165,2024-02-05 15:48:13.650,0.0
-3450,-15,249,-234,157,-151,2024-02-05 15:48:13.702,0.0
-3483,-49,215,-205,198,-126,2024-02-05 15:48:13.757,
-3484,-41,231,-116,121,-162,2024-02-05 15:48:13.827,0.0
-3474,-64,230,-48,116,-169,2024-02-05 15:48:13.877,0.0
-3440,-11,228,-26,146,-154,2024-02-05 15:48:13.936,0.0
-3469,-42,254,3,176,-177,2024-02-05 15:48:13.993,0.0
-3472,-27,224,7,164,-171,2024-02-05 15:48:14.043,0.0
-3446,-23,231,-29,153,-186,2024-02-05 15:48:14.101,0.0
-3441,-21,219,-66,159,-206,2024-02-05 15:48:14.158,0.0
-3455,-65,264,-80,173,-199,2024-02-05 15:48:14.216,0.0
-3459,-42,217,-104,153,-185,2024-02-05 15:48:14.274,0.0
-3465,-43,255,-114,166,-211,2024-02-05 15:48:14.331,0.0
-3481,-43,247,-122,151,-184,2024-02-05 15:48:14.387,0.0
-3470,-54,254,-146,167,-202,2024-02-05 15:48:14.452,0.0
-3485,-61,266,-157,113,-200,2024-02-05 15:48:14.501,0.0
-3470,-26,232,-158,136,-184,2024-02-05 15:48:14.562,0.0
-3449,-47,203,-223,96,-236,2024-02-05 15:48:14.619,0.0
-3462,-26,218,-370,5,-175,2024-02-05 15:48:14.668,0.0
-3436,-25,226,-510,86,-224,2024-02-05 15:48:14.729,0.0
-3443,-52,267,-554,234,-244,2024-02-05 15:48:14.787,0.0
-3474,-117,261,-347,257,-223,2024-02-05 15:48:14.836,0.0
-3455,-159,276,86,268,-198,2024-02-05 15:48:14.893,0.0
-3495,-85,309,430,127,-215,2024-02-05 15:48:14.958,0.0
-3451,-8,203,337,-32,-212,2024-02-05 15:48:15.015,0.0
-3431,41,206,29,253,-204,2024-02-05 15:48:15.090,0.0
-3407,-16,236,-246,336,-224,2024-02-05 15:48:15.130,0.0
-3452,-33,227,-413,392,-171,2024-02-05 15:48:15.187,0.0
-3474,-98,219,-421,225,-31,2024-02-05 15:48:15.251,0.0
-3455,-71,289,-174,558,38,2024-02-05 15:48:15.300,0.0
-3449,-66,264,77,565,-49,2024-02-05 15:48:15.351,0.0
-3505,-2,211,57,461,-126,2024-02-05 15:48:15.417,0.0
-3464,6,192,-112,261,-188,2024-02-05 15:48:15.466,0.0
-3469,-56,178,-306,159,-253,2024-02-05 15:48:15.523,0.0
-3452,-47,190,-423,130,-220,2024-02-05 15:48:15.581,0.0
-3457,-55,236,-430,143,-278,2024-02-05 15:48:15.639,0.0
-3438,-53,206,-357,157,-279,2024-02-05 15:48:15.687,0.0
-3454,-44,191,-247,139,-348,2024-02-05 15:48:15.744,0.0
-3461,-98,230,-73,207,-279,2024-02-05 15:48:15.817,0.0
-3448,-53,163,-10,223,-232,2024-02-05 15:48:15.859,0.0
-3439,-50,194,13,193,-196,2024-02-05 15:48:15.924,0.0
-3427,-48,169,-20,271,-211,2024-02-05 15:48:15.973,0.0
-3456,-49,207,-29,274,-258,2024-02-05 15:48:16.039,0.0
-3464,-64,198,-144,242,-242,2024-02-05 15:48:16.088,0.0
-3450,-59,210,-57,203,-197,2024-02-05 15:48:16.144,0.0
-3422,-68,163,31,429,-231,2024-02-05 15:48:16.210,0.0
-3463,-56,177,155,535,-107,2024-02-05 15:48:16.259,0.0
-3432,-78,173,217,539,-72,2024-02-05 15:48:16.316,0.0
-3457,-54,192,150,590,-114,2024-02-05 15:48:16.374,0.0
-3448,-56,170,26,554,-213,2024-02-05 15:48:16.432,0.0
-3507,-60,161,-68,197,-219,2024-02-05 15:48:16.489,0.0
-3448,-46,156,-87,190,-239,2024-02-05 15:48:16.547,0.0
-3459,-48,155,-157,179,-333,2024-02-05 15:48:16.596,0.0
-3473,-75,108,-225,108,-221,2024-02-05 15:48:16.652,0.0
-3464,-54,185,-197,-7,-191,2024-02-05 15:48:16.709,0.0
-3417,-63,216,-161,145,-234,2024-02-05 15:48:16.768,0.0
-3451,-66,168,-128,204,-218,2024-02-05 15:48:16.825,0.0
-3435,-75,145,-167,232,-198,2024-02-05 15:48:16.881,0.0
-3472,-113,156,-142,106,-206,2024-02-05 15:48:16.941,0.0
-3439,-97,175,-108,-9,-211,2024-02-05 15:48:17.000,0.0
-3463,-98,157,-162,90,-152,2024-02-05 15:48:17.050,0.0
-3429,-97,165,-139,108,-182,2024-02-05 15:48:17.107,0.0
-3428,-64,190,-165,136,-155,2024-02-05 15:48:17.163,0.0
-3484,-72,158,-197,212,-136,2024-02-05 15:48:17.220,0.0
-3435,-78,194,-165,157,-139,2024-02-05 15:48:17.284,0.0
-3458,-81,183,-147,18,-124,2024-02-05 15:48:17.334,0.0
-3448,-91,192,-171,-9,-130,2024-02-05 15:48:17.406,0.0
-3430,-91,184,-162,76,-146,2024-02-05 15:48:17.450,0.0
-3466,-57,173,-164,162,-154,2024-02-05 15:48:17.508,0.0
-3459,-75,206,-153,12,-174,2024-02-05 15:48:17.559,0.0
-3464,-50,160,-188,49,-183,2024-02-05 15:48:17.619,0.0
-3440,-51,168,-273,61,-176,2024-02-05 15:48:17.676,0.0
-3454,-95,230,-293,105,-212,2024-02-05 15:48:17.733,0.0
-3449,-55,206,-284,173,-218,2024-02-05 15:48:17.790,0.0
-3457,-53,208,-328,190,-181,2024-02-05 15:48:17.847,0.0
-3455,-94,212,-317,230,-199,2024-02-05 15:48:17.904,0.0
-3448,-87,174,-211,238,-150,2024-02-05 15:48:17.961,0.0
-3477,-63,189,-174,231,-142,2024-02-05 15:48:18.020,0.0
-3463,-70,207,-223,140,-192,2024-02-05 15:48:18.069,0.0
-3476,-56,201,-241,133,-170,2024-02-05 15:48:18.135,0.0
-3462,-64,158,-182,161,-166,2024-02-05 15:48:18.193,0.0
-3446,-65,161,-184,203,-191,2024-02-05 15:48:18.242,0.0
-3468,-72,176,-147,294,-185,2024-02-05 15:48:18.299,0.0
-3431,-69,197,-138,368,-205,2024-02-05 15:48:18.356,0.0
-3474,-66,219,-153,534,-155,2024-02-05 15:48:18.412,0.0
-3485,-61,168,-101,337,-185,2024-02-05 15:48:18.469,0.0
-3443,-67,138,-145,218,-214,2024-02-05 15:48:18.525,0.0
-3462,-27,173,-212,272,-187,2024-02-05 15:48:18.582,0.0
-3451,-67,177,-278,327,-170,2024-02-05 15:48:18.635,0.0
-3489,-76,165,-241,292,-179,2024-02-05 15:48:18.702,0.0
-3452,-92,205,-216,203,-184,2024-02-05 15:48:18.757,0.0
-3475,-74,138,-170,228,-209,2024-02-05 15:48:18.806,0.0
-3452,-46,151,-176,242,-203,2024-02-05 15:48:18.864,0.0
-3451,-83,158,-198,217,-201,2024-02-05 15:48:18.929,0.0
-3436,-76,170,-163,302,-191,2024-02-05 15:48:18.978,0.0
-3413,-67,165,-123,196,-178,2024-02-05 15:48:19.036,0.0
-3455,-54,168,-120,360,-204,2024-02-05 15:48:19.092,0.0
-3464,-57,155,-132,355,-230,2024-02-05 15:48:19.152,0.0
-3441,-82,145,-225,160,-242,2024-02-05 15:48:19.201,0.0
-3436,-80,133,-220,260,-221,2024-02-05 15:48:19.258,0.0
-3473,-106,158,-143,334,-244,2024-02-05 15:48:19.325,0.0
-3444,-115,146,-78,275,-221,2024-02-05 15:48:19.374,0.0
-3459,-112,107,-34,222,-194,2024-02-05 15:48:19.431,
