acceleration_x,acceleration_y,acceleration_z,gyroscope_x,gyroscope_y,gyroscope_z,timestamp,label
-13452,-168,-1888,-160,281,-302,2024-01-24 10:45:22,0.0
-13412,-208,-2216,-136,240,-283,2024-01-24 10:45:22,0.0
-13420,-88,-1868,-97,231,-240,2024-01-24 10:45:22,0.0
-13340,-100,-2060,-148,340,-217,2024-01-24 10:45:22,0.0
-13340,-176,-2124,-93,379,-209,2024-01-24 10:45:22,0.0
-13356,-208,-2064,-26,446,-247,2024-01-24 10:45:22,0.0
-13500,-252,-2056,-47,403,-298,2024-01-24 10:45:22,0.0
-13548,-200,-2028,-129,188,-257,2024-01-24 10:45:22,0.0
-13460,-104,-1912,-183,147,-212,2024-01-24 10:45:22,0.0
-13424,-116,-1996,-186,228,-202,2024-01-24 10:45:22,0.0
-13308,-116,-2164,-206,217,-153,2024-01-24 10:45:22,0.0
-13340,-200,-2104,-150,214,-124,2024-01-24 10:45:22,0.0
-13272,-232,-1948,-72,233,-149,2024-01-24 10:45:22,0.0
-13428,-352,-2212,-53,270,-151,2024-01-24 10:45:22,0.0
-13448,-256,-2116,-45,276,-165,2024-01-24 10:45:22,0.0
-13472,-88,-2232,-13,347,-161,2024-01-24 10:45:22,0.0
-13596,-208,-2300,-29,274,-175,2024-01-24 10:45:22,0.0
-13576,-232,-2232,-64,163,-166,2024-01-24 10:45:22,0.0
-13428,-200,-2212,-124,121,-175,2024-01-24 10:45:22,0.0
-13428,-196,-2144,-132,164,-213,2024-01-24 10:45:22,0.0
-13360,-196,-2100,-146,109,-250,2024-01-24 10:45:22,0.0
-13432,-172,-2060,-157,156,-217,2024-01-24 10:45:22,0.0
-13416,-264,-1972,-173,161,-208,2024-01-24 10:45:22,0.0
-13364,-276,-2064,-209,212,-205,2024-01-24 10:45:22,0.0
-13460,-160,-2068,-196,224,-177,2024-01-24 10:45:22,0.0
-13460,-184,-2052,-197,214,-158,2024-01-24 10:45:22,0.0
-13376,-308,-1972,-155,172,-160,2024-01-24 10:45:22,0.0
-13480,-148,-1944,-108,152,-159,2024-01-24 10:45:22,0.0
-13412,-228,-1912,-54,189,-185,2024-01-24 10:45:22,0.0
-13292,-284,-1988,-57,188,-191,2024-01-24 10:45:22,0.0
-13356,-188,-2048,-13,235,-201,2024-01-24 10:45:22,0.0
-13520,-312,-2300,9,166,-190,2024-01-24 10:45:22,0.0
-13512,-268,-2128,18,157,-147,2024-01-24 10:45:22,0.0
-13324,-256,-2128,23,248,-154,2024-01-24 10:45:22,0.0
-13308,-252,-2172,7,324,-187,2024-01-24 10:45:22,0.0
-13524,-216,-2192,-11,234,-175,2024-01-24 10:45:22,0.0
-13488,-276,-2176,-41,160,-168,2024-01-24 10:45:22,0.0
-13384,-232,-2044,-47,171,-156,2024-01-24 10:45:22,0.0
-13424,-192,-2032,-71,238,-153,2024-01-24 10:45:22,0.0
-13336,-196,-2012,-56,252,-155,2024-01-24 10:45:22,0.0
-13356,-156,-2016,-55,271,-158,2024-01-24 10:45:22,0.0
-13344,-236,-2056,-87,212,-101,2024-01-24 10:45:22,0.0
-13440,-364,-2000,-82,200,-140,2024-01-24 10:45:22,0.0
-13416,-252,-2044,-51,170,-153,2024-01-24 10:45:22,0.0
-13376,-284,-2136,-48,197,-112,2024-01-24 10:45:22,0.0
-13392,-312,-2184,-35,239,-131,2024-01-24 10:45:22,0.0
-13452,-168,-2288,-45,267,-140,2024-01-24 10:45:22,0.0
-13452,-84,-2284,-81,249,-131,2024-01-24 10:45:22,0.0
-13492,-148,-2004,-146,210,-154,2024-01-24 10:45:22,0.0
-13280,-164,-2084,-157,174,-136,2024-01-24 10:45:22,0.0
-13464,-344,-2184,-176,196,-170,2024-01-24 10:45:22,0.0
-13388,-188,-2108,-188,130,-157,2024-01-24 10:45:22,0.0
-13344,-272,-2092,-202,160,-176,2024-01-24 10:45:22,0.0
-13324,-184,-2240,-301,186,-179,2024-01-24 10:45:22,0.0
-13404,-200,-2068,-301,215,-148,2024-01-24 10:45:22,0.0
-13340,-192,-2156,-309,220,-189,2024-01-24 10:45:22,0.0
-13428,-204,-2212,-294,231,-169,2024-01-24 10:45:22,0.0
-13520,-356,-2216,-240,237,-175,2024-01-24 10:45:22,0.0
-13328,-332,-2296,-204,254,-160,2024-01-24 10:45:23,0.0
-13372,-216,-2272,-174,249,-179,2024-01-24 10:45:23,0.0
-13408,-280,-2220,-156,242,-182,2024-01-24 10:45:23,0.0
-13348,-244,-2132,-150,252,-176,2024-01-24 10:45:23,0.0
-13416,-220,-2188,-154,242,-196,2024-01-24 10:45:23,0.0
-13384,-228,-2168,-151,255,-196,2024-01-24 10:45:23,0.0
-13416,-188,-2120,-168,228,-199,2024-01-24 10:45:23,0.0
-13488,-180,-2088,-144,217,-175,2024-01-24 10:45:23,0.0
-13444,-180,-2228,-161,206,-152,2024-01-24 10:45:23,0.0
-13452,-252,-2156,-162,173,-136,2024-01-24 10:45:23,0.0
-13300,-176,-2000,-142,180,-133,2024-01-24 10:45:23,0.0
-13392,-192,-2128,-104,194,-158,2024-01-24 10:45:23,0.0
-13336,-228,-2252,-110,161,-180,2024-01-24 10:45:23,0.0
-13404,-152,-2220,-123,152,-184,2024-01-24 10:45:23,0.0
-13384,-68,-2160,-146,182,-199,2024-01-24 10:45:23,0.0
-13400,-88,-2172,-184,173,-207,2024-01-24 10:45:23,0.0
-13348,-136,-2084,-198,198,-173,2024-01-24 10:45:23,0.0
-13440,-8,-2232,-247,264,-192,2024-01-24 10:45:23,0.0
-13340,-196,-2064,-269,269,-178,2024-01-24 10:45:23,0.0
-13432,-292,-2056,-240,210,-242,2024-01-24 10:45:23,0.0
-13320,-308,-2160,-256,250,-238,2024-01-24 10:45:23,0.0
-13388,-124,-2088,-290,290,-247,2024-01-24 10:45:23,0.0
-13452,-184,-2132,-274,287,-214,2024-01-24 10:45:23,0.0
-13444,-232,-2044,-223,225,-157,2024-01-24 10:45:23,0.0
-13364,-216,-2056,-247,206,-141,2024-01-24 10:45:23,0.0
-13332,-204,-2048,-205,247,-156,2024-01-24 10:45:23,0.0
-13456,-356,-2208,-161,275,-162,2024-01-24 10:45:23,0.0
-13548,-280,-2212,-144,290,-170,2024-01-24 10:45:23,0.0
-13532,-208,-2108,-120,258,-160,2024-01-24 10:45:23,0.0
-13420,-228,-2280,-110,127,-176,2024-01-24 10:45:23,0.0
-13420,-188,-2272,-111,64,-190,2024-01-24 10:45:23,0.0
-13408,-132,-2176,-103,39,-157,2024-01-24 10:45:23,0.0
-13548,-172,-1944,-106,128,-197,2024-01-24 10:45:23,0.0
-13488,-288,-2044,-107,132,-212,2024-01-24 10:45:23,0.0
-13432,-256,-2100,-56,156,-237,2024-01-24 10:45:23,0.0
-13404,-296,-2096,-78,126,-212,2024-01-24 10:45:23,0.0
-13416,-292,-1816,-76,62,-193,2024-01-24 10:45:23,0.0
-13440,-196,-2168,-44,246,-163,2024-01-24 10:45:23,0.0
-13392,-216,-1948,-127,138,-90,2024-01-24 10:45:23,0.0
-13400,-120,-2088,-136,13,-76,2024-01-24 10:45:23,0.0
-13296,-196,-2220,-140,170,-96,2024-01-24 10:45:23,0.0
-13320,-132,-2188,-197,170,-127,2024-01-24 10:45:23,
-13392,-40,-2120,-207,219,-150,2024-01-24 10:45:23,0.0
-13416,-172,-2268,-204,250,-106,2024-01-24 10:45:23,0.0
-13428,-200,-2260,-255,276,-110,2024-01-24 10:45:23,0.0
-13496,-236,-2144,-220,224,-117,2024-01-24 10:45:23,0.0
-13376,-160,-2132,-272,215,-111,2024-01-24 10:45:23,0.0
-13392,-72,-2168,-260,205,-113,2024-01-24 10:45:23,0.0
-13464,60,-2044,-274,203,-121,2024-01-24 10:45:23,0.0
-13460,-40,-2056,-269,181,-168,2024-01-24 10:45:23,0.0
-13536,-188,-2128,-288,203,-197,2024-01-24 10:45:23,0.0
-13364,-124,-2268,-286,177,-206,2024-01-24 10:45:23,0.0
-13440,-120,-2176,-266,92,-179,2024-01-24 10:45:23,0.0
-13228,-116,-2164,-289,136,-149,2024-01-24 10:45:23,0.0
-13412,-164,-2156,-321,150,-178,2024-01-24 10:45:23,0.0
-13320,-192,-2260,-271,154,-188,2024-01-24 10:45:23,0.0
-13400,-196,-2184,-236,156,-239,2024-01-24 10:45:23,0.0
-13428,-108,-2228,-158,104,-210,2024-01-24 10:45:23,0.0
-13340,-132,-2136,-141,85,-185,2024-01-24 10:45:23,0.0
-13344,-224,-2152,-120,148,-184,2024-01-24 10:45:24,0.0
-13464,-188,-2236,-111,178,-139,2024-01-24 10:45:24,0.0
-13496,-212,-2124,-102,194,-145,2024-01-24 10:45:24,0.0
-13460,-152,-2164,-90,130,-124,2024-01-24 10:45:24,0.0
-13380,-240,-2028,-57,121,-129,2024-01-24 10:45:24,0.0
-13388,-120,-1972,-46,152,-158,2024-01-24 10:45:24,0.0
-13344,-260,-2040,-111,198,-176,2024-01-24 10:45:24,0.0
-13364,-220,-2064,-137,182,-148,2024-01-24 10:45:24,0.0
-13408,-184,-2112,-140,241,-145,2024-01-24 10:45:24,0.0
-13428,-140,-2204,-132,287,-160,2024-01-24 10:45:24,0.0
-13532,-148,-2120,-142,298,-139,2024-01-24 10:45:24,0.0
-13408,-192,-2108,-113,286,-177,2024-01-24 10:45:24,0.0
-13356,-192,-2152,-106,245,-167,2024-01-24 10:45:24,0.0
-13468,-80,-2168,-136,237,-206,2024-01-24 10:45:24,0.0
-13472,-296,-2040,-140,200,-246,2024-01-24 10:45:24,0.0
-13480,-168,-2012,-156,165,-197,2024-01-24 10:45:24,0.0
-13460,-80,-2032,-150,158,-209,2024-01-24 10:45:24,0.0
-13448,-76,-2052,-178,111,-177,2024-01-24 10:45:24,0.0
-13464,-148,-2072,-188,99,-182,2024-01-24 10:45:24,0.0
-13400,-240,-2112,-174,138,-171,2024-01-24 10:45:24,0.0
-13444,-136,-2044,-172,231,-187,2024-01-24 10:45:24,0.0
-13332,-256,-2076,-142,233,-171,2024-01-24 10:45:24,0.0
-13416,-148,-2020,-132,309,-143,2024-01-24 10:45:24,0.0
-13484,-160,-1920,-89,348,-133,2024-01-24 10:45:24,0.0
-13464,-156,-1980,-53,396,-156,2024-01-24 10:45:24,0.0
-13440,-224,-2056,-3,445,-149,2024-01-24 10:45:24,0.0
-13468,-256,-2112,49,435,-136,2024-01-24 10:45:24,0.0
-13568,-364,-2196,87,270,-128,2024-01-24 10:45:24,0.0
-13776,-224,-2496,66,-112,-127,2024-01-24 10:45:24,0.0
-13784,-216,-2572,22,-596,-79,2024-01-24 10:45:24,0.0
-13584,-152,-2476,11,-1031,-141,2024-01-24 10:45:24,0.0
-13344,-152,-1968,-6,-1086,-151,2024-01-24 10:45:24,0.0
-13224,-88,-1944,-76,-888,-136,2024-01-24 10:45:24,0.0
-13336,-136,-1732,-102,-624,-170,2024-01-24 10:45:24,0.0
-13152,-60,-1812,-131,-315,-184,2024-01-24 10:45:24,0.0
-13196,-140,-1956,-142,-94,-175,2024-01-24 10:45:24,0.0
-13184,-136,-1828,-203,48,-198,2024-01-24 10:45:24,0.0
-13204,-96,-1924,-247,147,-244,2024-01-24 10:45:24,0.0
-13408,12,-1708,-263,253,-264,2024-01-24 10:45:24,0.0
-13436,-100,-1788,-278,369,-239,2024-01-24 10:45:24,0.0
-13432,-168,-1816,-299,607,-188,2024-01-24 10:45:24,0.0
-13588,-104,-1976,-319,565,-183,2024-01-24 10:45:24,0.0
-13576,-92,-1996,-331,480,-192,2024-01-24 10:45:24,0.0
-13616,-204,-2000,-292,311,-203,2024-01-24 10:45:24,0.0
-13544,-256,-2032,-259,258,-183,2024-01-24 10:45:24,0.0
-13548,-268,-2068,-269,218,-204,2024-01-24 10:45:24,0.0
-13564,-260,-1764,-250,182,-178,2024-01-24 10:45:24,0.0
-13496,-284,-1900,-160,167,-195,2024-01-24 10:45:24,0.0
-13588,-308,-1860,-113,120,-196,2024-01-24 10:45:24,0.0
-13568,-152,-1912,-126,-13,-183,2024-01-24 10:45:24,0.0
-13468,-152,-1988,-132,-84,-176,2024-01-24 10:45:24,0.0
-13500,-124,-1836,-148,-9,-219,2024-01-24 10:45:24,0.0
-13400,-64,-1996,-172,55,-194,2024-01-24 10:45:24,0.0
-13504,-104,-1936,-204,50,-193,2024-01-24 10:45:24,0.0
-13504,-132,-1892,-227,5,-223,2024-01-24 10:45:24,0.0
-13376,-76,-2064,-303,-53,-209,2024-01-24 10:45:24,0.0
-13472,-80,-1920,-352,-36,-215,2024-01-24 10:45:24,0.0
-13468,-184,-2004,-401,-6,-191,2024-01-24 10:45:24,0.0
-13420,-168,-1936,-365,105,-206,2024-01-24 10:45:24,0.0
-13292,-280,-1676,-339,188,-204,2024-01-24 10:45:25,0.0
-13436,-272,-1888,-371,298,-179,2024-01-24 10:45:25,0.0
-13572,-348,-1896,-389,321,-190,2024-01-24 10:45:25,0.0
-13452,-200,-2060,-299,262,-224,2024-01-24 10:45:25,0.0
-13444,-148,-1892,-284,236,-192,2024-01-24 10:45:25,0.0
-13468,-220,-1860,-247,118,-205,2024-01-24 10:45:25,0.0
-13580,-372,-1808,-207,62,-202,2024-01-24 10:45:25,0.0
-13452,-288,-1744,-172,87,-177,2024-01-24 10:45:25,0.0
-13344,-296,-1732,-169,175,-171,2024-01-24 10:45:25,0.0
-13408,-256,-1756,-134,185,-180,2024-01-24 10:45:25,0.0
-13536,-148,-1864,-152,192,-173,2024-01-24 10:45:25,0.0
-13500,-136,-1900,-162,202,-192,2024-01-24 10:45:25,0.0
-13488,-140,-1932,-178,164,-188,2024-01-24 10:45:25,0.0
-13444,-108,-1976,-173,183,-162,2024-01-24 10:45:25,0.0
-13540,-140,-1808,-226,135,-161,2024-01-24 10:45:25,0.0
-13320,-268,-1952,-211,162,-137,2024-01-24 10:45:25,0.0
-13364,-124,-1864,-183,213,-158,2024-01-24 10:45:25,0.0
-13356,-188,-1644,-160,262,-160,2024-01-24 10:45:25,0.0
-13428,-148,-1924,-102,266,-179,2024-01-24 10:45:25,0.0
-13336,-172,-1800,-116,264,-147,2024-01-24 10:45:25,0.0
-13480,-188,-1912,-127,257,-199,2024-01-24 10:45:25,0.0
-13476,-228,-1876,-131,276,-182,2024-01-24 10:45:25,0.0
-13520,-96,-1888,-100,232,-178,2024-01-24 10:45:25,0.0
-13472,-216,-1912,-127,134,-185,2024-01-24 10:45:25,
-13464,-184,-1892,-138,96,-209,2024-01-24 10:45:25,0.0
-13484,-264,-1912,-175,127,-176,2024-01-24 10:45:25,0.0
-13492,-236,-1944,-145,149,-185,2024-01-24 10:45:25,0.0
-13448,-240,-1988,-185,131,-188,2024-01-24 10:45:25,0.0
-13420,-196,-1964,-174,177,-188,2024-01-24 10:45:25,0.0
-13412,-164,-1836,-221,202,-170,2024-01-24 10:45:25,0.0
-13412,-244,-1856,-183,198,-214,2024-01-24 10:45:25,0.0
-13552,-280,-1896,-184,207,-147,2024-01-24 10:45:25,0.0
-13468,-232,-1904,-171,122,-195,2024-01-24 10:45:25,0.0
-13440,-188,-1796,-183,126,-159,2024-01-24 10:45:25,0.0
-13524,-168,-1772,-185,131,-190,2024-01-24 10:45:25,0.0
-13504,-188,-1920,-197,149,-204,2024-01-24 10:45:25,0.0
-13372,-124,-1852,-188,165,-191,2024-01-24 10:45:25,0.0
-13452,-232,-1924,-181,203,-195,2024-01-24 10:45:25,0.0
-13432,-220,-1964,-148,224,-200,2024-01-24 10:45:25,0.0
-13452,-200,-1916,-141,220,-188,2024-01-24 10:45:25,0.0
-13452,-276,-1812,-128,223,-192,2024-01-24 10:45:25,0.0
-13416,-176,-1844,-81,167,-170,2024-01-24 10:45:25,0.0
-13508,-104,-1936,-81,161,-166,2024-01-24 10:45:25,0.0
-13520,-172,-1988,-104,208,-142,2024-01-24 10:45:25,0.0
-13528,-104,-1928,-64,232,-152,2024-01-24 10:45:25,0.0
-13408,-184,-2124,-91,270,-136,2024-01-24 10:45:25,0.0
-13384,-212,-1832,-114,291,-165,2024-01-24 10:45:25,0.0
-13556,-136,-1860,-94,292,-133,2024-01-24 10:45:25,0.0
-13520,-124,-1868,-141,278,-155,2024-01-24 10:45:25,0.0
-13460,-140,-1784,-131,249,-136,2024-01-24 10:45:25,0.0
-13508,-164,-1776,-140,216,-158,2024-01-24 10:45:25,0.0
-13364,-192,-1868,-143,161,-176,2024-01-24 10:45:25,0.0
-13428,-108,-1844,-151,184,-213,2024-01-24 10:45:25,0.0
-13424,-236,-1920,-176,224,-171,2024-01-24 10:45:25,0.0
-13524,-152,-2036,-223,253,-196,2024-01-24 10:45:25,0.0
-13608,-196,-1880,-231,249,-161,2024-01-24 10:45:25,0.0
-13524,-216,-1920,-236,204,-172,2024-01-24 10:45:25,0.0
-13464,-232,-1880,-207,213,-155,2024-01-24 10:45:25,0.0
-13440,-252,-1900,-183,204,-170,2024-01-24 10:45:26,0.0
-13436,-264,-1924,-173,222,-205,2024-01-24 10:45:26,0.0
-13476,-272,-1976,-195,240,-155,2024-01-24 10:45:26,0.0
-13388,-232,-1860,-151,313,-153,2024-01-24 10:45:26,0.0
-13432,-248,-1764,-141,394,-146,2024-01-24 10:45:26,0.0
-13436,-132,-2096,-150,406,-107,2024-01-24 10:45:26,0.0
-13460,-184,-1792,-107,402,-138,2024-01-24 10:45:26,0.0
-13512,-220,-1872,-77,389,-144,2024-01-24 10:45:26,0.0
-13420,-128,-1988,-83,345,-154,2024-01-24 10:45:26,0.0
-13464,-136,-2136,-62,319,-187,2024-01-24 10:45:26,0.0
-13524,-128,-2012,-105,266,-178,2024-01-24 10:45:26,0.0
-13508,-112,-1984,-178,188,-189,2024-01-24 10:45:26,0.0
-13372,-168,-1992,-192,216,-206,2024-01-24 10:45:26,0.0
-13400,-148,-2004,-156,253,-205,2024-01-24 10:45:26,0.0
-13480,-156,-1980,-222,274,-189,2024-01-24 10:45:26,0.0
-13456,-152,-1952,-226,255,-151,2024-01-24 10:45:26,0.0
-13456,-200,-1924,-205,289,-157,2024-01-24 10:45:26,0.0
-13488,-264,-1924,-192,291,-134,2024-01-24 10:45:26,0.0
-13404,-264,-1836,-175,219,-142,2024-01-24 10:45:26,0.0
-13380,-232,-2052,-149,203,-155,2024-01-24 10:45:26,0.0
-13496,-208,-1964,-94,241,-158,2024-01-24 10:45:26,0.0
-13464,-252,-1880,-67,235,-172,2024-01-24 10:45:26,0.0
-13372,-144,-2092,-44,236,-155,2024-01-24 10:45:26,0.0
-13468,-72,-1968,-55,219,-165,2024-01-24 10:45:26,0.0
-13568,-220,-1964,-63,192,-189,2024-01-24 10:45:26,0.0
-13456,-184,-2212,-114,162,-145,2024-01-24 10:45:26,0.0
-13504,-108,-1944,-131,167,-156,2024-01-24 10:45:26,0.0
-13496,-264,-1940,-141,152,-161,2024-01-24 10:45:26,0.0
-13436,-184,-1936,-109,109,-142,2024-01-24 10:45:26,0.0
-13428,-136,-1892,-103,117,-150,2024-01-24 10:45:26,0.0
-13416,-292,-1976,-118,160,-155,2024-01-24 10:45:26,0.0
-13404,-228,-1920,-98,264,-135,2024-01-24 10:45:26,0.0
-13436,-104,-2092,-110,289,-161,2024-01-24 10:45:26,0.0
-13500,-124,-2076,-108,264,-167,2024-01-24 10:45:26,0.0
-13396,-160,-2056,-119,260,-169,2024-01-24 10:45:26,0.0
-13508,-216,-1940,-159,189,-199,2024-01-24 10:45:26,0.0
-13380,-84,-2020,-198,166,-172,2024-01-24 10:45:26,0.0
-13436,-100,-1904,-205,175,-192,2024-01-24 10:45:26,0.0
-13492,-148,-2032,-223,130,-173,2024-01-24 10:45:26,0.0
-13412,-204,-1840,-249,123,-130,2024-01-24 10:45:26,0.0
-13408,-204,-1916,-252,113,-103,2024-01-24 10:45:26,0.0
-13464,-204,-2008,-274,156,-139,2024-01-24 10:45:26,0.0
-13424,-200,-1780,-217,175,-150,2024-01-24 10:45:26,0.0
-13544,-152,-1864,-168,164,-121,2024-01-24 10:45:26,0.0
-13432,-148,-1924,-137,137,-104,2024-01-24 10:45:26,0.0
-13436,-204,-1716,-116,111,-88,2024-01-24 10:45:26,0.0
-13412,-148,-1888,-67,132,-129,2024-01-24 10:45:26,0.0
-13428,-124,-1996,-91,125,-157,2024-01-24 10:45:26,0.0
-13416,-224,-2080,-98,144,-175,2024-01-24 10:45:26,0.0
-13372,-172,-1852,-123,235,-217,2024-01-24 10:45:26,0.0
-13412,-128,-2140,-131,286,-146,2024-01-24 10:45:26,0.0
-13628,-28,-1976,-207,238,-135,2024-01-24 10:45:26,0.0
-13532,-52,-1832,-247,220,-150,2024-01-24 10:45:26,0.0
-13560,-216,-1852,-252,187,-185,2024-01-24 10:45:26,0.0
-13496,-192,-2080,-294,131,-202,2024-01-24 10:45:26,0.0
-13440,-160,-1824,-288,136,-213,2024-01-24 10:45:26,0.0
-13372,-140,-1784,-261,136,-170,2024-01-24 10:45:26,0.0
-13436,-36,-1884,-301,186,-178,2024-01-24 10:45:26,0.0
-13348,-236,-1760,-302,220,-165,2024-01-24 10:45:26,0.0
-13384,-220,-1792,-277,269,-171,2024-01-24 10:45:27,0.0
-13420,-164,-1880,-244,325,-195,2024-01-24 10:45:27,0.0
-13360,-176,-1920,-222,340,-198,2024-01-24 10:45:27,0.0
-13444,-84,-1924,-219,346,-171,2024-01-24 10:45:27,0.0
-13552,-76,-1860,-283,306,-132,2024-01-24 10:45:27,0.0
-13504,-108,-1952,-340,343,-165,2024-01-24 10:45:27,0.0
-13452,-120,-1916,-294,334,-170,2024-01-24 10:45:27,
-13404,-124,-1980,-228,343,-204,2024-01-24 10:45:27,0.0
-13468,-160,-1976,-232,362,-191,2024-01-24 10:45:27,0.0
-13408,-96,-2068,-225,373,-170,2024-01-24 10:45:27,0.0
-13320,-148,-1936,-184,379,-193,2024-01-24 10:45:27,0.0
-13416,-192,-2032,-198,361,-231,2024-01-24 10:45:27,0.0
-13344,-168,-1984,-179,349,-175,2024-01-24 10:45:27,0.0
-13476,-132,-2052,-210,297,-190,2024-01-24 10:45:27,0.0
-13448,-144,-1996,-243,265,-150,2024-01-24 10:45:27,0.0
-13356,-200,-1888,-241,368,-106,2024-01-24 10:45:27,0.0
-13456,-272,-1860,-216,435,-112,2024-01-24 10:45:27,0.0
-13380,-236,-2000,-181,494,-96,2024-01-24 10:45:27,0.0
-13404,-84,-2064,-176,443,-126,2024-01-24 10:45:27,0.0
-13368,-72,-2104,-217,466,-75,2024-01-24 10:45:27,0.0
-13400,-108,-2152,-193,521,-90,2024-01-24 10:45:27,0.0
-13364,-212,-2056,-212,548,-82,2024-01-24 10:45:27,0.0
-13320,-136,-2092,-182,597,-84,2024-01-24 10:45:27,0.0
-13472,-140,-2156,-132,584,-77,2024-01-24 10:45:27,0.0
-13396,-84,-1924,-84,438,-89,2024-01-24 10:45:27,0.0
-13508,-188,-2084,-85,323,-99,2024-01-24 10:45:27,0.0
-13468,-176,-1904,-54,407,-129,2024-01-24 10:45:27,0.0
-13416,-152,-2052,-81,414,-215,2024-01-24 10:45:27,0.0
-13444,-92,-2032,-85,426,-222,2024-01-24 10:45:27,0.0
-13484,-12,-2076,-146,402,-205,2024-01-24 10:45:27,0.0
-13532,-132,-2164,-182,367,-208,2024-01-24 10:45:27,0.0
-13348,-84,-2272,-228,374,-208,2024-01-24 10:45:27,0.0
-13412,-132,-2072,-271,374,-205,2024-01-24 10:45:27,0.0
-13284,-68,-2160,-293,423,-209,2024-01-24 10:45:27,0.0
-13412,-228,-2120,-300,359,-242,2024-01-24 10:45:27,0.0
-13368,-240,-2152,-336,359,-216,2024-01-24 10:45:27,0.0
-13488,-364,-2264,-267,400,-226,2024-01-24 10:45:27,0.0
-13348,-256,-2204,-250,453,-218,2024-01-24 10:45:27,0.0
-13496,-276,-2076,-216,440,-203,2024-01-24 10:45:27,0.0
-13384,-216,-2304,-180,306,-178,2024-01-24 10:45:27,0.0
-13388,-200,-2248,-123,286,-184,2024-01-24 10:45:27,0.0
-13432,-244,-2216,-105,307,-161,2024-01-24 10:45:27,0.0
-13428,-192,-2392,-92,305,-164,2024-01-24 10:45:27,0.0
-13288,-208,-2288,-109,269,-172,2024-01-24 10:45:27,0.0
-13320,-84,-2244,-64,269,-137,2024-01-24 10:45:27,0.0
-13368,-60,-2304,-45,268,-132,2024-01-24 10:45:27,0.0
-13296,-156,-2252,-90,264,-144,2024-01-24 10:45:27,0.0
-13340,-92,-2276,-92,304,-142,2024-01-24 10:45:27,0.0
-13444,-136,-2320,-77,281,-197,2024-01-24 10:45:27,0.0
-13436,-48,-2308,-111,280,-173,2024-01-24 10:45:27,0.0
-13344,-112,-2224,-175,224,-201,2024-01-24 10:45:27,0.0
-13332,-92,-2240,-174,226,-218,2024-01-24 10:45:27,0.0
-13364,-108,-2236,-179,227,-220,2024-01-24 10:45:27,0.0
-13276,-28,-2268,-154,227,-197,2024-01-24 10:45:27,0.0
-13428,16,-2312,-150,286,-185,2024-01-24 10:45:27,0.0
-13352,-16,-2268,-171,280,-179,2024-01-24 10:45:27,0.0
-13492,-116,-2272,-150,266,-195,2024-01-24 10:45:27,0.0
-13400,92,-2212,-155,228,-169,2024-01-24 10:45:27,0.0
-13352,-12,-2264,-164,240,-153,2024-01-24 10:45:27,0.0
-13304,-220,-2416,-165,277,-156,2024-01-24 10:45:28,0.0
-13384,-252,-2324,-174,296,-181,2024-01-24 10:45:28,0.0
-13320,-220,-2216,-151,248,-183,2024-01-24 10:45:28,0.0
-13348,-140,-2260,-196,248,-184,2024-01-24 10:45:28,0.0
-13264,4,-2212,-158,292,-176,2024-01-24 10:45:28,0.0
-13400,-72,-2192,-175,332,-207,2024-01-24 10:45:28,0.0
-13360,-172,-2236,-195,370,-176,2024-01-24 10:45:28,0.0
-13404,-76,-2300,-220,371,-182,2024-01-24 10:45:28,0.0
-13436,-104,-2364,-199,304,-197,2024-01-24 10:45:28,0.0
-13532,-148,-2128,-185,222,-207,2024-01-24 10:45:28,0.0
-13472,-188,-2352,-165,164,-219,2024-01-24 10:45:28,0.0
-13400,-172,-2184,-191,165,-219,2024-01-24 10:45:28,0.0
-13360,-152,-2348,-206,150,-222,2024-01-24 10:45:28,0.0
-13416,-264,-2260,-183,159,-197,2024-01-24 10:45:28,0.0
-13364,-176,-2284,-160,191,-179,2024-01-24 10:45:28,0.0
-13408,-156,-2260,-182,186,-177,2024-01-24 10:45:28,0.0
-13376,-236,-2244,-150,184,-206,2024-01-24 10:45:28,0.0
-13368,-272,-2156,-133,180,-182,2024-01-24 10:45:28,0.0
-13364,-152,-2416,-146,230,-181,2024-01-24 10:45:28,0.0
-13304,-228,-2308,-133,215,-159,2024-01-24 10:45:28,0.0
-13468,-152,-2292,-117,262,-164,2024-01-24 10:45:28,0.0
-13376,-236,-2272,-118,299,-165,2024-01-24 10:45:28,0.0
-13360,-264,-2476,-128,276,-120,2024-01-24 10:45:28,0.0
-13468,-128,-2416,-159,194,-180,2024-01-24 10:45:28,0.0
-13260,-52,-2460,-220,168,-182,2024-01-24 10:45:28,0.0
-13348,-40,-2508,-237,173,-204,2024-01-24 10:45:28,0.0
-13380,-32,-2376,-245,167,-169,2024-01-24 10:45:28,0.0
-13268,-100,-2344,-258,139,-187,2024-01-24 10:45:28,0.0
-13248,-220,-2476,-253,143,-180,2024-01-24 10:45:28,0.0
-13268,-76,-2372,-273,175,-171,2024-01-24 10:45:28,0.0
-13308,-96,-2204,-247,170,-188,2024-01-24 10:45:28,0.0
-13324,-176,-2376,-240,171,-188,2024-01-24 10:45:28,0.0
-13412,-84,-2288,-246,196,-192,2024-01-24 10:45:28,0.0
-13460,-208,-2236,-188,194,-192,2024-01-24 10:45:28,0.0
-13340,-144,-2344,-184,148,-198,2024-01-24 10:45:28,0.0
-13328,-152,-2384,-156,190,-198,2024-01-24 10:45:28,0.0
-13392,-72,-2452,-165,190,-178,2024-01-24 10:45:28,0.0
-13348,-128,-2372,-145,232,-174,2024-01-24 10:45:28,0.0
-13320,-152,-2300,-134,229,-159,2024-01-24 10:45:28,0.0
-13280,-88,-2168,-159,242,-159,2024-01-24 10:45:28,0.0
-13160,-152,-2208,-96,322,-120,2024-01-24 10:45:28,0.0
-13240,-24,-2272,-110,452,-120,2024-01-24 10:45:28,0.0
-13204,-100,-2228,-99,608,-118,2024-01-24 10:45:28,0.0
-13296,-204,-2164,-36,773,-83,2024-01-24 10:45:28,0.0
-13296,-300,-2236,-2,890,-62,2024-01-24 10:45:28,0.0
-13300,-252,-2364,55,898,-57,2024-01-24 10:45:28,0.0
-13416,-436,-2484,207,754,-39,2024-01-24 10:45:28,0.0
-13536,-428,-2400,309,655,-15,2024-01-24 10:45:28,
-13392,-404,-2276,394,635,10,2024-01-24 10:45:28,0.0
-13480,-208,-2408,518,578,42,2024-01-24 10:45:28,0.0
-13408,-236,-2520,555,428,-5,2024-01-24 10:45:28,0.0
-13468,-192,-2528,596,317,7,2024-01-24 10:45:28,0.0
-13400,-172,-2548,600,231,6,2024-01-24 10:45:28,0.0
-13204,-304,-2444,608,291,-1,2024-01-24 10:45:28,0.0
-13212,-156,-2608,598,365,8,2024-01-24 10:45:28,0.0
-13340,-244,-2632,643,337,-22,2024-01-24 10:45:28,0.0
-13416,-204,-2512,674,266,-60,2024-01-24 10:45:28,0.0
-13272,-140,-2504,697,215,-84,2024-01-24 10:45:28,0.0
-13340,-72,-2576,669,181,-97,2024-01-24 10:45:29,0.0
-13276,-116,-2380,680,173,-137,2024-01-24 10:45:29,0.0
-13168,-48,-2540,572,207,-180,2024-01-24 10:45:29,0.0
-13256,116,-2380,542,273,-177,2024-01-24 10:45:29,0.0
-13264,136,-2576,496,407,-179,2024-01-24 10:45:29,0.0
-13272,228,-2456,416,468,-162,2024-01-24 10:45:29,0.0
-13380,236,-2544,310,481,-176,2024-01-24 10:45:29,0.0
-13360,280,-2488,176,415,-209,2024-01-24 10:45:29,0.0
-13360,140,-2472,109,387,-230,2024-01-24 10:45:29,0.0
-13548,20,-2692,-5,239,-219,2024-01-24 10:45:29,0.0
-13592,-136,-2556,-89,111,-205,2024-01-24 10:45:29,0.0
-13396,-252,-2520,-150,-51,-187,2024-01-24 10:45:29,0.0
-13508,-268,-2436,-89,-116,-136,2024-01-24 10:45:29,0.0
-13480,-472,-2492,-85,-123,-90,2024-01-24 10:45:29,0.0
-13500,-652,-2460,66,-216,-60,2024-01-24 10:45:29,0.0
-13428,-684,-2508,207,-372,-68,2024-01-24 10:45:29,0.0
-13408,-664,-2488,403,-389,-93,2024-01-24 10:45:29,0.0
-13340,-552,-2428,463,-326,-150,2024-01-24 10:45:29,0.0
-13176,-400,-2484,555,-309,-135,2024-01-24 10:45:29,0.0
-13156,-312,-2260,659,-269,-153,2024-01-24 10:45:29,0.0
-13268,-316,-2280,679,-172,-150,2024-01-24 10:45:29,0.0
-13336,-204,-2400,651,-78,-106,2024-01-24 10:45:29,0.0
-13340,28,-2436,584,-36,-128,2024-01-24 10:45:29,0.0
-13096,176,-2488,456,43,-161,2024-01-24 10:45:29,0.0
-13240,112,-2724,311,195,-175,2024-01-24 10:45:29,0.0
-13272,148,-2428,213,270,-179,2024-01-24 10:45:29,0.0
-13496,8,-2652,97,212,-169,2024-01-24 10:45:29,0.0
-13436,40,-2580,-15,94,-191,2024-01-24 10:45:29,0.0
-13276,-8,-2524,-131,32,-214,2024-01-24 10:45:29,0.0
-13304,-72,-2408,-225,148,-217,2024-01-24 10:45:29,0.0
-13472,-140,-2572,-232,142,-217,2024-01-24 10:45:29,0.0
-13400,-164,-2596,-211,62,-219,2024-01-24 10:45:29,0.0
-13468,-288,-2608,-209,48,-241,2024-01-24 10:45:29,0.0
-13616,-316,-2608,-126,-50,-179,2024-01-24 10:45:29,0.0
-13600,-424,-2460,-75,-191,-143,2024-01-24 10:45:29,0.0
-13464,-260,-2328,22,-248,-152,2024-01-24 10:45:29,0.0
-13412,-344,-2448,77,-246,-111,2024-01-24 10:45:29,0.0
-13308,-188,-2432,96,-132,-93,2024-01-24 10:45:29,0.0
-13244,-184,-2524,85,38,-59,2024-01-24 10:45:29,0.0
-13436,-248,-2428,113,11,-64,2024-01-24 10:45:29,0.0
-13348,-244,-2368,135,12,-52,2024-01-24 10:45:29,0.0
-13268,-288,-2180,118,87,-51,2024-01-24 10:45:29,0.0
-13312,-200,-2336,96,87,-16,2024-01-24 10:45:29,0.0
-13260,-184,-2328,46,144,-23,2024-01-24 10:45:29,0.0
-13224,-176,-2272,-27,196,-23,2024-01-24 10:45:29,0.0
-13276,-188,-2224,-25,208,-68,2024-01-24 10:45:29,0.0
-13320,-248,-2204,-68,226,-120,2024-01-24 10:45:29,0.0
-13204,-76,-2264,-104,271,-166,2024-01-24 10:45:29,0.0
-13312,-80,-2392,-150,298,-197,2024-01-24 10:45:29,0.0
-13392,-88,-2244,-250,331,-207,2024-01-24 10:45:29,0.0
-13512,-72,-2316,-284,308,-197,2024-01-24 10:45:29,0.0
-13532,-252,-2316,-336,205,-236,2024-01-24 10:45:29,0.0
-13568,-316,-2316,-411,93,-223,2024-01-24 10:45:29,0.0
-13428,-304,-2224,-467,-17,-182,2024-01-24 10:45:29,0.0
-13444,-328,-2168,-479,2,-160,2024-01-24 10:45:29,0.0
-13324,-260,-2312,-406,9,-173,2024-01-24 10:45:29,0.0
-13312,-372,-2216,-334,59,-136,2024-01-24 10:45:29,0.0
-13228,-280,-2336,-262,133,-202,2024-01-24 10:45:29,0.0
-13348,-416,-2148,-197,198,-180,2024-01-24 10:45:29,0.0
-13368,-492,-2304,-144,214,-184,2024-01-24 10:45:30,0.0
-13512,-380,-2176,-105,209,-174,2024-01-24 10:45:30,0.0
-13392,-324,-2204,-108,157,-146,2024-01-24 10:45:30,0.0
-13424,-260,-2124,-105,134,-134,2024-01-24 10:45:30,0.0
-13412,-236,-2200,-134,133,-161,2024-01-24 10:45:30,0.0
-13448,-180,-2140,-162,162,-147,2024-01-24 10:45:30,0.0
-13400,-4,-2332,-287,177,-171,2024-01-24 10:45:30,0.0
-13368,24,-2136,-370,201,-169,2024-01-24 10:45:30,0.0
-13296,-64,-2420,-454,240,-227,2024-01-24 10:45:30,0.0
-13340,-48,-2400,-553,277,-213,2024-01-24 10:45:30,0.0
-13440,-208,-2360,-622,240,-265,2024-01-24 10:45:30,0.0
-13408,-244,-2348,-742,269,-291,2024-01-24 10:45:30,0.0
-13332,-200,-2212,-759,258,-331,2024-01-24 10:45:30,0.0
-13316,-148,-2192,-865,256,-315,2024-01-24 10:45:30,0.0
-13320,-140,-2164,-905,333,-296,2024-01-24 10:45:30,0.0
-13272,-88,-2272,-973,351,-293,2024-01-24 10:45:30,0.0
-13344,-224,-2160,-982,387,-308,2024-01-24 10:45:30,0.0
-13436,-160,-2188,-970,543,-336,2024-01-24 10:45:30,0.0
-13248,-188,-2080,-953,548,-301,2024-01-24 10:45:30,0.0
-13408,-224,-2132,-912,626,-338,2024-01-24 10:45:30,0.0
-13424,-224,-2216,-902,675,-316,2024-01-24 10:45:30,0.0
-13480,-288,-2404,-860,683,-314,2024-01-24 10:45:30,0.0
-13600,-184,-2312,-866,624,-306,2024-01-24 10:45:30,0.0
-13476,-328,-2268,-837,405,-264,2024-01-24 10:45:30,0.0
-13356,-264,-2264,-798,351,-266,2024-01-24 10:45:30,0.0
-13476,-248,-2468,-809,325,-234,2024-01-24 10:45:30,0.0
-13540,-252,-2328,-775,340,-238,2024-01-24 10:45:30,0.0
-13392,-144,-2216,-762,386,-201,2024-01-24 10:45:30,0.0
-13304,-232,-2076,-742,415,-244,2024-01-24 10:45:30,0.0
-13376,-264,-2104,-739,394,-241,2024-01-24 10:45:30,0.0
-13328,-220,-2248,-712,285,-240,2024-01-24 10:45:30,
-13228,-252,-2240,-663,261,-202,2024-01-24 10:45:30,0.0
-13352,-144,-2272,-671,403,-185,2024-01-24 10:45:30,0.0
-13324,-220,-2260,-702,479,-117,2024-01-24 10:45:30,0.0
-13232,-76,-2452,-670,505,-148,2024-01-24 10:45:30,0.0
-13296,-84,-2748,-619,512,-168,2024-01-24 10:45:30,0.0
-13272,-176,-2732,-610,522,-179,2024-01-24 10:45:30,0.0
-13296,-136,-2676,-555,473,-196,2024-01-24 10:45:30,0.0
-13296,-196,-2520,-536,397,-235,2024-01-24 10:45:30,0.0
-13356,-212,-2496,-499,391,-285,2024-01-24 10:45:30,0.0
-13256,-196,-2396,-501,471,-256,2024-01-24 10:45:30,0.0
-13328,-152,-2540,-503,511,-225,2024-01-24 10:45:30,0.0
-13376,-40,-2624,-484,456,-243,2024-01-24 10:45:30,0.0
-13360,-176,-2592,-514,370,-237,2024-01-24 10:45:30,0.0
-13320,-104,-2368,-509,279,-229,2024-01-24 10:45:30,0.0
-13416,-120,-2644,-501,229,-204,2024-01-24 10:45:30,0.0
-13340,-184,-2596,-537,285,-180,2024-01-24 10:45:30,0.0
-13172,-20,-2652,-504,320,-177,2024-01-24 10:45:30,0.0
-13184,-120,-2652,-507,385,-224,2024-01-24 10:45:30,0.0
-13412,-92,-2520,-516,389,-210,2024-01-24 10:45:30,0.0
-13392,-44,-2724,-539,356,-228,2024-01-24 10:45:30,0.0
-13392,-72,-2628,-554,277,-230,2024-01-24 10:45:30,0.0
-13292,44,-2708,-571,263,-208,2024-01-24 10:45:30,0.0
-13276,-16,-2516,-603,270,-181,2024-01-24 10:45:30,0.0
-13260,-160,-2720,-567,339,-197,2024-01-24 10:45:30,0.0
-13304,-80,-2592,-548,393,-206,2024-01-24 10:45:30,0.0
-13288,-88,-2708,-472,396,-224,2024-01-24 10:45:30,0.0
-13376,-132,-2708,-436,371,-272,2024-01-24 10:45:30,0.0
-13320,-100,-2580,-394,325,-294,2024-01-24 10:45:30,0.0
-13312,-140,-2648,-400,284,-267,2024-01-24 10:45:31,0.0
-13272,-40,-2500,-402,320,-284,2024-01-24 10:45:31,0.0
-13320,-136,-2548,-405,313,-241,2024-01-24 10:45:31,0.0
-13432,-44,-2564,-389,323,-222,2024-01-24 10:45:31,0.0
-13308,-80,-2656,-375,312,-227,2024-01-24 10:45:31,0.0
-13204,-212,-2716,-332,367,-208,2024-01-24 10:45:31,0.0
-13332,-40,-2652,-310,418,-179,2024-01-24 10:45:31,0.0
-13428,-68,-2588,-308,369,-180,2024-01-24 10:45:31,0.0
-13264,-100,-2416,-280,396,-188,2024-01-24 10:45:31,0.0
-13216,0,-2644,-263,460,-161,2024-01-24 10:45:31,0.0
-13348,4,-2620,-261,381,-167,2024-01-24 10:45:31,0.0
-13268,-76,-2688,-248,326,-166,2024-01-24 10:45:31,0.0
-13372,0,-2532,-239,380,-168,2024-01-24 10:45:31,0.0
-13272,-28,-2596,-231,395,-134,2024-01-24 10:45:31,0.0
-13248,24,-2756,-202,358,-158,2024-01-24 10:45:31,0.0
-13228,-168,-2720,-183,368,-148,2024-01-24 10:45:31,0.0
-13312,-80,-2708,-174,380,-178,2024-01-24 10:45:31,0.0
-13380,-12,-2612,-158,344,-158,2024-01-24 10:45:31,0.0
-13328,-44,-2652,-141,357,-148,2024-01-24 10:45:31,0.0
-13268,-52,-2684,-126,328,-167,2024-01-24 10:45:31,0.0
-13124,-92,-2596,-123,316,-155,2024-01-24 10:45:31,0.0
-13240,-28,-2672,-134,362,-171,2024-01-24 10:45:31,0.0
-13296,-12,-2800,-151,254,-167,2024-01-24 10:45:31,0.0
-13192,56,-2852,-145,165,-186,2024-01-24 10:45:31,0.0
-13336,-88,-2876,-191,143,-205,2024-01-24 10:45:31,0.0
-13236,-44,-2712,-205,125,-211,2024-01-24 10:45:31,0.0
-13172,-56,-2724,-190,119,-189,2024-01-24 10:45:31,0.0
-13328,-132,-2832,-177,109,-193,2024-01-24 10:45:31,0.0
-13244,-24,-2712,-180,34,-200,2024-01-24 10:45:31,0.0
-13260,-164,-2700,-150,-8,-198,2024-01-24 10:45:31,0.0
-13116,-156,-2688,-166,-56,-192,2024-01-24 10:45:31,0.0
-13212,-108,-2576,-197,-43,-194,2024-01-24 10:45:31,0.0
-13156,8,-2676,-258,-67,-188,2024-01-24 10:45:31,0.0
-13332,72,-2488,-347,-103,-195,2024-01-24 10:45:31,0.0
-13408,92,-2444,-412,-62,-174,2024-01-24 10:45:31,0.0
-13488,128,-2744,-406,61,-181,2024-01-24 10:45:31,0.0
-13524,0,-2968,-413,-105,-157,2024-01-24 10:45:31,0.0
-13304,-124,-3000,-328,-415,-192,2024-01-24 10:45:31,0.0
-13116,-196,-2792,-252,-515,-254,2024-01-24 10:45:31,0.0
-13164,-176,-2692,-190,-406,-285,2024-01-24 10:45:31,0.0
-13240,-132,-2848,-108,-261,-270,2024-01-24 10:45:31,0.0
-13160,-96,-2912,-92,-248,-258,2024-01-24 10:45:31,0.0
-13056,-8,-2840,-79,-148,-216,2024-01-24 10:45:31,0.0
-13052,-32,-2660,-51,3,-214,2024-01-24 10:45:31,0.0
-13132,-56,-2716,-12,197,-204,2024-01-24 10:45:31,0.0
-13192,-128,-2672,-20,300,-220,2024-01-24 10:45:31,0.0
-13200,-84,-2516,-47,386,-210,2024-01-24 10:45:31,0.0
-13292,-60,-2660,-67,518,-173,2024-01-24 10:45:31,0.0
-13312,-116,-2724,-74,581,-137,2024-01-24 10:45:31,0.0
-13308,-200,-2544,-4,418,-151,2024-01-24 10:45:31,0.0
-13328,-92,-2648,13,285,-141,2024-01-24 10:45:31,0.0
-13332,-228,-2488,78,285,-148,2024-01-24 10:45:31,0.0
-13360,-172,-2352,163,264,-129,2024-01-24 10:45:31,0.0
-13216,-156,-2072,169,327,-110,2024-01-24 10:45:31,0.0
-13304,-140,-2236,142,452,-101,2024-01-24 10:45:31,0.0
-13504,112,-2528,99,614,-81,2024-01-24 10:45:31,0.0
-13608,24,-2600,69,604,-98,2024-01-24 10:45:31,0.0
-13740,104,-2984,74,493,-34,2024-01-24 10:45:31,0.0
-13688,-8,-3004,76,194,-10,2024-01-24 10:45:31,0.0
-13540,-276,-2888,112,-216,-34,2024-01-24 10:45:32,0.0
-13408,-292,-2636,184,-520,-60,2024-01-24 10:45:32,0.0
-13244,-424,-2388,344,-490,-88,2024-01-24 10:45:32,0.0
-13244,-384,-2292,472,-404,-168,2024-01-24 10:45:32,0.0
-13128,-292,-2168,569,-288,-159,2024-01-24 10:45:32,0.0
-13280,-96,-2224,584,-162,-185,2024-01-24 10:45:32,0.0
-13260,48,-2264,512,37,-160,2024-01-24 10:45:32,0.0
-13384,184,-2480,350,83,-82,2024-01-24 10:45:32,0.0
-13448,160,-2564,133,4,-59,2024-01-24 10:45:32,0.0
-13288,384,-2668,-137,-89,-81,2024-01-24 10:45:32,0.0
-13152,120,-2816,-351,87,-122,2024-01-24 10:45:32,0.0
-13088,108,-2768,-509,160,-139,2024-01-24 10:45:32,0.0
-13176,-8,-2520,-627,104,-180,2024-01-24 10:45:32,
-13164,-132,-2472,-652,136,-223,2024-01-24 10:45:32,0.0
-13168,-288,-2380,-707,301,-275,2024-01-24 10:45:32,0.0
-13192,-380,-2304,-630,465,-344,2024-01-24 10:45:32,0.0
-13408,-240,-2304,-624,427,-357,2024-01-24 10:45:32,0.0
-13408,-296,-2388,-633,387,-338,2024-01-24 10:45:32,0.0
-13412,-276,-2480,-626,419,-293,2024-01-24 10:45:32,0.0
-13620,-236,-2476,-601,341,-264,2024-01-24 10:45:32,0.0
-13576,-220,-2512,-577,217,-182,2024-01-24 10:45:32,0.0
-13444,-244,-2648,-504,70,-109,2024-01-24 10:45:32,0.0
-13256,-300,-2560,-411,44,-77,2024-01-24 10:45:32,0.0
-13188,-292,-2552,-330,69,-103,2024-01-24 10:45:32,0.0
-13272,-216,-2380,-272,141,-126,2024-01-24 10:45:32,0.0
-13220,-328,-2436,-198,193,-143,2024-01-24 10:45:32,0.0
-13248,-224,-2560,-94,252,-124,2024-01-24 10:45:32,0.0
-13428,-92,-2508,-47,258,-75,2024-01-24 10:45:32,0.0
-13348,-28,-2576,-80,135,-80,2024-01-24 10:45:32,0.0
-13368,152,-2568,-84,134,-146,2024-01-24 10:45:32,0.0
-13220,112,-2472,-159,139,-161,2024-01-24 10:45:32,0.0
-13228,24,-2584,-173,136,-181,2024-01-24 10:45:32,0.0
-13112,104,-2524,-280,186,-226,2024-01-24 10:45:32,0.0
-13172,60,-2456,-310,221,-215,2024-01-24 10:45:32,0.0
-13244,24,-2588,-390,314,-213,2024-01-24 10:45:32,0.0
-13292,8,-2400,-405,389,-218,2024-01-24 10:45:32,0.0
-13352,52,-2532,-453,390,-210,2024-01-24 10:45:32,0.0
-13244,84,-2588,-431,335,-224,2024-01-24 10:45:32,0.0
-13236,28,-2496,-448,418,-267,2024-01-24 10:45:32,0.0
-13252,-92,-2412,-483,466,-275,2024-01-24 10:45:32,0.0
-13412,16,-2632,-473,425,-285,2024-01-24 10:45:32,0.0
-13288,-48,-2512,-452,408,-308,2024-01-24 10:45:32,0.0
-13408,-176,-2512,-426,341,-307,2024-01-24 10:45:32,0.0
-13336,-60,-2636,-446,262,-297,2024-01-24 10:45:32,0.0
-13416,-100,-2648,-443,198,-287,2024-01-24 10:45:32,0.0
-13444,-156,-2708,-426,148,-266,2024-01-24 10:45:32,0.0
-13396,-120,-2652,-444,154,-239,2024-01-24 10:45:32,0.0
-13304,-152,-2640,-448,159,-207,2024-01-24 10:45:32,0.0
-13304,-124,-2564,-413,144,-171,2024-01-24 10:45:32,0.0
-13324,-132,-2460,-398,204,-143,2024-01-24 10:45:32,0.0
-13348,-100,-2396,-349,210,-112,2024-01-24 10:45:32,0.0
-13388,-72,-2604,-274,144,-107,2024-01-24 10:45:32,0.0
-13244,-112,-2420,-240,191,-149,2024-01-24 10:45:32,0.0
-13268,-52,-2352,-212,231,-170,2024-01-24 10:45:32,0.0
-13280,20,-2364,-178,273,-195,2024-01-24 10:45:32,0.0
-13316,-36,-2440,-184,228,-186,2024-01-24 10:45:32,0.0
-13308,24,-2536,-190,202,-133,2024-01-24 10:45:32,0.0
-13344,92,-2468,-206,210,-151,2024-01-24 10:45:32,0.0
-13276,100,-2488,-211,231,-160,2024-01-24 10:45:33,0.0
-13288,80,-2616,-236,278,-145,2024-01-24 10:45:33,0.0
-13456,64,-2288,-242,311,-193,2024-01-24 10:45:33,0.0
-13232,28,-2452,-226,383,-188,2024-01-24 10:45:33,0.0
-13268,-12,-2592,-226,387,-185,2024-01-24 10:45:33,0.0
-13288,-52,-2652,-215,291,-178,2024-01-24 10:45:33,0.0
-13320,-88,-2460,-194,250,-176,2024-01-24 10:45:33,0.0
-13356,8,-2580,-139,257,-193,2024-01-24 10:45:33,0.0
-13288,24,-2520,-112,280,-183,2024-01-24 10:45:33,0.0
-13172,-88,-2560,-98,342,-190,2024-01-24 10:45:33,0.0
-13332,-48,-2668,-56,293,-221,2024-01-24 10:45:33,0.0
-13280,0,-2664,-74,255,-188,2024-01-24 10:45:33,0.0
-13272,-108,-2720,-48,260,-168,2024-01-24 10:45:33,0.0
-13264,-132,-2612,-26,272,-192,2024-01-24 10:45:33,0.0
-13184,-32,-2628,-59,312,-186,2024-01-24 10:45:33,0.0
-13232,-92,-2576,-81,309,-164,2024-01-24 10:45:33,0.0
-13384,-92,-2628,-101,387,-125,2024-01-24 10:45:33,0.0
-13316,-76,-2692,-120,400,-92,2024-01-24 10:45:33,0.0
-13276,-20,-2708,-123,420,-87,2024-01-24 10:45:33,0.0
-13360,-52,-2588,-58,470,-114,2024-01-24 10:45:33,0.0
-13264,-56,-2832,-41,448,-133,2024-01-24 10:45:33,0.0
-13252,12,-2716,2,378,-131,2024-01-24 10:45:33,0.0
-13264,16,-2732,-13,419,-154,2024-01-24 10:45:33,0.0
-13204,-52,-2628,-40,433,-151,2024-01-24 10:45:33,0.0
-13248,-88,-2728,-102,441,-158,2024-01-24 10:45:33,0.0
-13224,8,-2604,-71,569,-152,2024-01-24 10:45:33,0.0
-13172,108,-2812,-96,621,-138,2024-01-24 10:45:33,0.0
-13180,-64,-2856,-114,615,-125,2024-01-24 10:45:33,0.0
-13260,12,-2772,-98,664,-200,2024-01-24 10:45:33,0.0
-13252,-64,-2716,-72,683,-190,2024-01-24 10:45:33,0.0
-13308,-52,-2788,-50,685,-190,2024-01-24 10:45:33,0.0
-13300,-88,-2896,-41,623,-192,2024-01-24 10:45:33,0.0
-13296,-72,-2904,-1,514,-165,2024-01-24 10:45:33,0.0
-13344,-148,-2744,52,434,-140,2024-01-24 10:45:33,0.0
-13312,-52,-2956,126,404,-152,2024-01-24 10:45:33,0.0
-13300,-156,-2908,112,398,-129,2024-01-24 10:45:33,0.0
-13356,-108,-2920,175,353,-129,2024-01-24 10:45:33,0.0
-13220,-156,-2788,133,284,-79,2024-01-24 10:45:33,0.0
-13236,-80,-2832,178,253,-77,2024-01-24 10:45:33,0.0
-13228,-88,-2688,192,245,-83,2024-01-24 10:45:33,0.0
-13148,-20,-2660,220,318,-106,2024-01-24 10:45:33,0.0
-13112,-172,-2676,248,293,-122,2024-01-24 10:45:33,0.0
-13132,-88,-2728,277,308,-138,2024-01-24 10:45:33,0.0
-13176,-12,-2692,264,282,-133,2024-01-24 10:45:33,0.0
-13152,-32,-2728,273,270,-126,2024-01-24 10:45:33,0.0
-13308,16,-2652,226,287,-114,2024-01-24 10:45:33,0.0
-13148,-72,-2692,239,272,-105,2024-01-24 10:45:33,0.0
-13244,-100,-2856,208,314,-116,2024-01-24 10:45:33,0.0
-13300,-4,-2936,184,247,-141,2024-01-24 10:45:33,0.0
-13260,8,-3108,147,156,-150,2024-01-24 10:45:33,0.0
-13288,-16,-3032,142,116,-169,2024-01-24 10:45:33,0.0
-13324,-28,-3144,133,36,-150,2024-01-24 10:45:33,0.0
-13348,-124,-2924,131,-13,-187,2024-01-24 10:45:33,0.0
-13316,-172,-2940,130,-32,-178,2024-01-24 10:45:33,0.0
-13072,-104,-2828,129,16,-157,2024-01-24 10:45:33,
