acceleration_x,acceleration_y,acceleration_z,gyroscope_x,gyroscope_y,gyroscope_z,timestamp,label
-1.3677,-0.2395,0.1846,-10.91,41.9769,-15.7928,2024-02-12 15:44:23.098,0.0
-1.2495,-0.3169,-0.0833,-26.5121,10.4675,10.2539,2024-02-12 15:44:23.098,0.0
-1.1182,-0.3159,-0.2434,-33.8058,12.0697,10.3455,2024-02-12 15:44:23.098,0.0
-1.4272,-0.7996,0.4939,-19.1879,35.0342,-62.851,2024-02-12 15:44:23.107,0.0
-2.1157,-0.7969,-0.0898,46.3867,15.2664,-7.2708,2024-02-12 15:44:23.139,0.0
-1.322,-0.5049,-0.3091,22.4533,14.7247,47.5693,2024-02-12 15:44:23.139,0.0
-0.9482,-0.2505,-0.1675,12.9242,1.4801,50.0641,2024-02-12 15:44:23.164,0.0
-0.8435,-0.3462,-0.3569,1.3733,5.7755,55.2902,2024-02-12 15:44:23.180,0.0
-0.6458,-0.4138,-0.4158,0.4044,26.1688,52.1774,2024-02-12 15:44:23.204,0.0
-0.7849,-0.2939,-0.2927,0.3967,23.3383,42.5644,2024-02-12 15:44:23.245,0.0
-0.835,-0.2197,-0.1392,6.3782,15.9836,45.5322,2024-02-12 15:44:23.245,0.0
-0.8301,-0.1726,-0.0396,16.6245,10.8948,51.7044,2024-02-12 15:44:23.253,0.0
-0.7456,-0.115,-0.0764,25.4593,8.3618,56.1218,2024-02-12 15:44:23.269,0.0
-0.7058,-0.0566,-0.1228,29.3579,2.7542,59.1507,2024-02-12 15:44:23.285,0.0
-0.7083,-0.0432,-0.1204,28.1525,-4.3411,65.1169,2024-02-12 15:44:23.310,0.0
-0.6416,-0.0188,-0.0737,27.4734,-14.4348,72.9675,2024-02-12 15:44:23.326,0.0
-0.4976,-0.0044,-0.1008,27.3209,-15.1443,73.3185,2024-02-12 15:44:23.343,0.0
-0.3843,-0.0195,-0.1672,24.3759,-3.5782,67.9474,2024-02-12 15:44:23.359,0.0
-0.3259,-0.0476,-0.1318,21.7056,7.9422,59.1965,2024-02-12 15:44:23.383,0.0
-0.321,-0.0244,-0.1033,22.6593,13.2904,51.0559,2024-02-12 15:44:23.400,0.0
-0.4214,0.0042,-0.1157,25.3067,22.4152,47.9431,2024-02-12 15:44:23.416,0.0
-0.4851,0.0449,-0.1252,27.3285,25.2304,48.0576,2024-02-12 15:44:23.433,0.0
-0.4558,0.0715,-0.113,21.1716,13.5574,42.778,2024-02-12 15:44:23.458,4.0
-0.4121,0.0608,-0.009,15.3351,8.6288,36.5295,2024-02-12 15:44:23.474,4.0
-0.3628,0.0764,0.0674,11.2534,21.5149,25.7416,2024-02-12 15:44:23.510,4.0
-0.4509,0.1523,0.1626,10.6735,43.1366,14.4806,2024-02-12 15:44:23.510,4.0
-0.7341,0.293,0.1094,12.2757,75.3098,8.6441,2024-02-12 15:44:23.527,4.0
-1.1282,0.3281,-0.0547,8.4076,91.5298,5.661,2024-02-12 15:44:23.551,4.0
-1.4995,0.2319,-0.0447,3.067,59.9136,0.061,2024-02-12 15:44:23.576,4.0
-1.5483,0.1418,-0.1528,2.1896,11.055,0.7401,2024-02-12 15:44:23.600,4.0
-1.4771,0.1055,-0.2458,-9.1095,-18.3487,-5.3177,2024-02-12 15:44:23.609,4.0
-1.9045,0.3635,-0.3169,-29.8462,25.0397,21.4386,2024-02-12 15:44:23.625,4.0
-1.4724,0.1702,-0.5903,-46.2646,2.0905,7.2861,2024-02-12 15:44:23.645,4.0
-1.2297,0.0671,-0.3137,-53.3218,-21.965,-18.631,2024-02-12 15:44:23.661,4.0
-1.0642,0.135,-0.2913,-43.396,-28.6789,-48.4161,2024-02-12 15:44:23.677,4.0
-0.7434,-0.093,-0.3818,-31.3187,-41.3589,-58.8531,2024-02-12 15:44:23.692,4.0
-0.6628,-0.0676,-0.4651,-21.08,-41.153,-64.4302,2024-02-12 15:44:23.709,4.0
-0.6787,-0.0476,-0.4089,-21.8887,-16.7542,-65.6128,2024-02-12 15:44:23.726,4.0
-0.6594,-0.0774,-0.3193,-30.2505,-8.5068,-66.4673,2024-02-12 15:44:23.750,4.0
-0.717,-0.1047,-0.2285,-41.7023,-9.1248,-68.7561,2024-02-12 15:44:23.766,4.0
-0.7581,-0.0967,-0.1113,-49.5682,-15.5716,-73.7991,2024-02-12 15:44:23.783,4.0
-0.7524,-0.127,-0.0828,-51.2466,-35.5148,-75.6912,2024-02-12 15:44:23.807,4.0
-0.7024,-0.1758,-0.0691,-51.8723,-58.5556,-73.3566,2024-02-12 15:44:23.816,4.0
-0.5396,-0.239,0.0217,-38.7192,-78.804,-56.4804,2024-02-12 15:44:23.865,4.0
-0.332,-0.2041,-0.0291,-27.2522,-74.7757,-49.9954,2024-02-12 15:44:23.865,4.0
-0.2122,-0.1624,-0.0625,-20.7748,-59.4254,-54.9545,2024-02-12 15:44:23.874,4.0
-0.2339,-0.1238,-0.073,-15.9073,-40.8173,-61.058,2024-02-12 15:44:23.890,4.0
-0.3186,-0.1145,-0.0586,-13.3133,-23.9944,-66.7038,2024-02-12 15:44:23.906,4.0
-0.4146,-0.1509,-0.074,-10.7651,-9.6512,-66.9479,2024-02-12 15:44:23.922,4.0
-0.5171,-0.2351,-0.0515,-8.0414,-6.4926,-64.27,2024-02-12 15:44:23.946,4.0
-0.6543,-0.2847,-0.0208,-1.8921,-18.5623,-56.4804,2024-02-12 15:44:23.970,4.0
-0.6902,-0.2881,0.019,2.6932,-37.0178,-42.3508,2024-02-12 15:44:23.986,4.0
-0.6016,-0.2854,0.1218,4.7379,-47.142,-32.6538,2024-02-12 15:44:24.002,4.0
-0.4915,-0.3408,0.1975,6.0043,-27.1835,-26.5732,2024-02-12 15:44:24.026,4.0
-0.5737,-0.3333,0.2725,11.4975,29.6783,-33.9355,2024-02-12 15:44:24.042,4.0
-0.8352,-0.3508,0.2407,10.0479,63.3316,-39.5279,2024-02-12 15:44:24.057,4.0
-1.2969,-0.3472,0.2229,0.0534,62.0499,-33.4625,2024-02-12 15:44:24.073,4.0
-1.554,-0.3672,0.1106,-9.3536,34.5535,-7.1487,2024-02-12 15:44:24.089,4.0
-1.3438,-0.3821,-0.0149,-39.505,-1.236,30.0522,2024-02-12 15:44:24.105,4.0
-1.1348,-0.408,-0.3926,-56.7017,-4.8141,20.3781,2024-02-12 15:44:24.121,4.0
-2.1367,-0.5579,0.9573,0.2518,34.2407,-48.317,2024-02-12 15:44:24.145,4.0
-2.2756,-0.791,-0.2954,45.0058,34.996,3.4027,2024-02-12 15:44:24.162,4.0
-1.0193,-0.5215,-0.3147,5.5313,38.681,48.8434,2024-02-12 15:44:24.178,4.0
-0.8162,-0.2068,-0.1533,-7.8583,-4.6082,43.3502,2024-02-12 15:44:24.194,4.0
-0.8232,-0.3577,-0.4119,-16.6016,9.8038,55.6183,2024-02-12 15:44:24.210,4.0
-0.7139,-0.4243,-0.366,-15.9378,27.1301,54.4281,2024-02-12 15:44:24.235,4.0
-0.8728,-0.3079,-0.2405,-10.9711,24.9786,48.3856,2024-02-12 15:44:24.259,4.0
-0.9409,-0.2402,-0.1482,-2.8076,13.6566,56.8848,2024-02-12 15:44:24.268,4.0
-0.8518,-0.186,-0.0837,4.837,1.709,68.222,2024-02-12 15:44:24.308,4.0
-0.7039,-0.1067,-0.0579,10.8261,-4.4708,71.2128,2024-02-12 15:44:24.317,4.0
-0.6218,-0.0266,-0.0762,14.4501,-9.1019,71.7163,2024-02-12 15:44:24.327,4.0
-0.562,0.0374,-0.1113,12.3215,-11.8332,75.6912,2024-02-12 15:44:24.343,4.0
-0.4736,0.0725,-0.1321,7.1716,-9.9945,78.1937,2024-02-12 15:44:24.360,4.0
-0.3838,0.0801,-0.1072,2.0294,-2.4338,75.6531,2024-02-12 15:44:24.385,4.0
-0.3154,0.0037,-0.0903,-3.2043,8.4152,68.0923,2024-02-12 15:44:24.393,4.0
-0.2983,-0.0449,-0.0564,-4.9286,15.9912,58.075,2024-02-12 15:44:24.409,4.0
-0.3296,-0.0525,-0.0417,-3.4332,23.2925,53.8101,2024-02-12 15:44:24.428,4.0
-0.4507,-0.0295,0.0195,-0.9995,34.3018,54.0695,2024-02-12 15:44:24.444,4.0
-0.5193,-0.0164,0.0464,2.3346,38.1622,55.3894,2024-02-12 15:44:24.460,4.0
-0.4482,0.0083,-0.0129,-0.2518,31.2119,43.7393,2024-02-12 15:44:24.485,4.0
-0.4468,0.0796,-0.0112,-4.6158,33.5388,25.0168,2024-02-12 15:44:24.501,4.0
-0.5347,0.1863,0.0071,-5.1193,41.9083,9.758,2024-02-12 15:44:24.525,4.0
-0.7009,0.251,0.0063,-4.7607,48.4619,1.7853,2024-02-12 15:44:24.542,4.0
-0.8997,0.2607,-0.0554,-5.9433,49.7513,-0.4196,2024-02-12 15:44:24.558,4.0
-1.0054,0.2244,-0.0388,-8.8882,41.0309,0.351,2024-02-12 15:44:24.574,4.0
-1.0571,0.3257,-0.04,-12.7945,7.9651,1.3046,2024-02-12 15:44:24.598,4.0
-0.9607,0.2666,0.0024,-12.3901,-15.9683,-3.0823,2024-02-12 15:44:24.615,4.0
-0.866,0.0574,-0.2798,-13.5574,-29.3961,-8.194,2024-02-12 15:44:24.631,4.0
-1.4294,0.0964,-0.4048,-25.6195,28.5492,-11.795,2024-02-12 15:44:24.647,4.0
-1.8,0.3003,-0.3027,-31.4331,85.2585,20.3934,2024-02-12 15:44:24.663,4.0
-1.5588,0.0869,-0.6289,-52.5055,33.1955,19.8212,2024-02-12 15:44:24.687,4.0
-0.865,-0.0327,-0.45,-49.2172,-28.0914,-32.8522,2024-02-12 15:44:24.736,4.0
-0.8623,-0.054,-0.3069,-26.3748,-46.7224,-40.8401,2024-02-12 15:44:24.744,4.0
-0.5947,0.0593,-0.3533,-26.1765,-51.1169,-47.2412,2024-02-12 15:44:24.744,4.0
-0.6138,0.2856,-0.5134,-36.6058,-15.3122,-73.9899,2024-02-12 15:44:24.752,4.0
-0.8835,0.2253,-0.5054,-53.2913,31.4789,-85.3958,2024-02-12 15:44:24.776,4.0
-1.0476,0.0544,-0.408,-67.6193,19.6075,-85.5026,2024-02-12 15:44:24.801,4.0
-1.1482,-0.1067,-0.2749,-75.4166,-26.7792,-80.0705,2024-02-12 15:44:24.809,4.0
-0.979,-0.1555,-0.1543,-74.4247,-75.4623,-74.4781,2024-02-12 15:44:24.825,4.0
-0.7144,-0.1948,-0.0901,-69.0155,-100.2197,-75.7751,2024-02-12 15:44:24.850,4.0
-0.46,-0.2422,-0.0527,-59.761,-102.417,-81.871,2024-02-12 15:44:24.866,4.0
-0.3621,-0.2742,-0.0085,-48.4924,-81.1615,-83.8242,2024-02-12 15:44:24.882,4.0
-0.3499,-0.2546,-0.0811,-36.0413,-44.3115,-79.2389,2024-02-12 15:44:24.898,4.0
-0.3547,-0.196,-0.1489,-29.892,-22.3618,-73.2651,2024-02-12 15:44:24.922,4.0
-0.4001,-0.1167,-0.1812,-28.244,-18.7531,-69.4427,2024-02-12 15:44:24.938,4.0
-0.4558,-0.0693,-0.1431,-28.8467,-21.6751,-66.9708,2024-02-12 15:44:24.954,4.0
-0.5034,-0.0913,-0.0979,-29.0222,-21.3699,-63.2553,2024-02-12 15:44:24.978,4.0
-0.5627,-0.1287,-0.0417,-26.7181,-23.9868,-56.7398,2024-02-12 15:44:24.986,4.0
-0.614,-0.2463,-0.0049,-20.9427,-33.7982,-42.9459,2024-02-12 15:44:25.010,4.0
-0.5647,-0.2896,0.0203,-13.6871,-40.3595,-32.9666,2024-02-12 15:44:25.026,4.0
-0.5,-0.333,0.0684,-9.8343,-34.4849,-31.8146,2024-02-12 15:44:25.043,4.0
-0.5327,-0.3406,0.0906,-7.9041,-11.6043,-30.777,2024-02-12 15:44:25.067,4.0
-0.6421,-0.3276,0.188,-3.7613,23.3917,-29.892,2024-02-12 15:44:25.083,4.0
-0.7307,-0.3291,0.1707,-1.2283,49.6292,-31.5781,2024-02-12 15:44:25.109,4.0
-0.927,-0.3982,0.1392,-5.2643,59.4177,-28.0914,2024-02-12 15:44:25.117,4.0
-1.1926,-0.4539,0.0725,-12.9852,44.5099,-20.7748,2024-02-12 15:44:25.133,4.0
-1.3442,-0.4268,-0.0469,-37.1323,13.2904,3.4866,2024-02-12 15:44:25.157,4.0
-1.1963,-0.2715,0.0549,-53.6575,1.2436,29.8462,2024-02-12 15:44:25.174,4.0
-1.1531,-0.3198,-0.2627,-66.4062,16.1285,1.1978,2024-02-12 15:44:25.197,4.0
-1.7388,-0.3987,0.9155,-17.1204,26.001,-44.2657,2024-02-12 15:44:25.206,4.0
-1.8196,-0.9214,-0.4604,26.5656,47.7905,-28.4195,2024-02-12 15:44:25.222,4.0
-1.5662,-0.5327,-0.2471,-23.4375,26.8021,28.6713,2024-02-12 15:44:25.247,4.0
-1.0415,-0.0889,0.1516,-24.971,-36.9873,50.3311,2024-02-12 15:44:25.263,4.0
-0.6665,-0.0972,-0.3032,-38.3072,-31.1203,65.7501,2024-02-12 15:44:25.279,4.0
-0.4312,-0.2192,-0.3914,-49.6979,11.261,57.8766,2024-02-12 15:44:25.303,4.0
-0.5273,-0.1414,-0.2454,-55.9769,31.8451,40.7028,2024-02-12 15:44:25.311,4.0
-0.7151,-0.1663,-0.0876,-58.5937,35.6979,31.8909,2024-02-12 15:44:25.335,4.0
-0.7761,-0.1809,0.0132,-54.1611,23.0179,35.08,2024-02-12 15:44:25.360,4.0
-0.7339,-0.1672,0.0376,-47.2794,-2.3499,37.4756,2024-02-12 15:44:25.363,4.0
-0.73,-0.1011,-0.0046,-43.9453,-24.437,40.1154,2024-02-12 15:44:25.388,4.0
-0.6582,-0.0398,-0.0237,-44.8608,-32.3257,43.1137,2024-02-12 15:44:25.404,4.0
-0.5283,0.0281,-0.0447,-49.3393,-30.2124,40.7944,2024-02-12 15:44:25.428,4.0
-0.4988,0.105,-0.0767,-55.748,-20.05,33.5007,2024-02-12 15:44:25.445,4.0
-0.4861,0.1609,-0.1038,-62.7136,-8.606,26.0162,2024-02-12 15:44:25.461,4.0
-0.5508,0.1619,-0.1128,-69.0384,3.1204,23.056,2024-02-12 15:44:25.477,4.0
-0.5779,0.1221,-0.1326,-74.4019,18.0664,22.7509,2024-02-12 15:44:25.493,4.0
-0.5984,0.0469,-0.1418,-77.5223,25.2457,20.9198,2024-02-12 15:44:25.510,4.0
-0.6724,-0.0371,-0.0732,-77.5909,23.2162,18.2953,2024-02-12 15:44:25.534,4.0
-0.6902,-0.0647,0.0251,-72.8836,13.0768,13.7405,2024-02-12 15:44:25.550,4.0
-0.6523,-0.0112,0.0537,-69.3283,1.8005,6.7596,2024-02-12 15:44:25.569,4.0
-0.5889,0.0662,0.0486,-68.1305,-6.6223,-0.3967,2024-02-12 15:44:25.585,4.0
-0.5383,0.1096,0.0303,-69.191,-8.6365,-9.5215,2024-02-12 15:44:25.601,4.0
-0.5422,0.113,0.0393,-70.9,-5.5466,-20.4163,2024-02-12 15:44:25.626,4.0
-0.6211,0.073,0.0928,-72.3495,-7.6141,-28.038,2024-02-12 15:44:25.642,4.0
-0.634,-0.0083,0.1187,-76.7441,-18.0054,-33.4854,2024-02-12 15:44:25.658,4.0
-0.6355,-0.0154,0.0952,-83.8242,-30.5176,-43.3578,2024-02-12 15:44:25.677,4.0
-0.5852,0.1238,-0.1753,-92.9794,-33.6075,-56.0989,2024-02-12 15:44:25.701,4.0
-0.5776,0.3323,-0.5752,-105.278,-34.5764,-66.1011,2024-02-12 15:44:25.714,4.0
-1.0408,0.5146,-1.54,-136.4517,35.6598,-58.075,2024-02-12 15:44:25.730,4.0
-1.7996,0.0105,-1.1538,-210.0677,122.1237,-24.91,2024-02-12 15:44:25.754,4.0
-1.7515,-0.3367,0.7683,-191.3147,27.8015,2.8763,2024-02-12 15:44:25.771,4.0
-0.9038,-0.5237,-0.0107,-157.0663,-113.7009,2.9221,2024-02-12 15:44:25.787,4.0
-0.1716,-0.1902,-0.3494,-153.8162,-173.4848,-35.9421,2024-02-12 15:44:25.811,4.0
-0.0945,-0.125,-0.2222,-146.8582,-36.0107,-57.373,2024-02-12 15:44:25.827,4.0
-0.4451,-0.1575,-0.0229,-124.588,107.7042,-85.4568,2024-02-12 15:44:25.844,4.0
-1.4033,-0.0444,-0.3455,-117.6529,131.218,-103.2181,2024-02-12 15:44:25.860,4.0
-2.48,0.0955,-0.5657,-155.9143,119.2017,-48.6679,2024-02-12 15:44:25.883,4.0
-1.7173,-0.1985,-0.0916,-147.7966,-60.0433,-30.1208,2024-02-12 15:44:25.900,4.0
-1.1199,-0.3335,-0.0134,-122.0779,-165.5045,-17.9977,2024-02-12 15:44:25.916,4.0
-0.5459,-0.1636,-0.1475,-123.2071,-148.9944,-23.4299,2024-02-12 15:44:25.940,4.0
-0.4875,0.0381,-0.2437,-136.4899,-84.3277,-32.7148,2024-02-12 15:44:25.956,4.0
-0.2659,0.1492,-0.2922,-154.6402,-23.2239,-48.2101,2024-02-12 15:44:25.972,4.0
-0.4897,0.1238,-0.2197,-165.2603,4.8218,-54.8553,2024-02-12 15:44:25.989,4.0
-0.7126,0.0164,-0.1719,-169.1284,8.8577,-45.929,2024-02-12 15:44:26.005,4.0
-0.7119,-0.1155,-0.1975,-171.4554,-6.0501,-34.0958,2024-02-12 15:44:26.021,4.0
-0.5786,-0.2063,-0.1965,-174.6063,-21.7743,-27.3056,2024-02-12 15:44:26.045,4.0
-0.4377,-0.2671,-0.0986,-176.6968,-24.4904,-23.4604,2024-02-12 15:44:26.070,4.0
-0.4419,-0.2612,-0.0479,-174.9191,-8.1177,-20.4163,2024-02-12 15:44:26.078,4.0
-0.5227,-0.2507,-0.0332,-171.0052,18.3716,-15.4724,2024-02-12 15:44:26.094,4.0
-0.6614,-0.1814,-0.0486,-166.2979,31.4636,-10.0479,2024-02-12 15:44:26.118,4.0
-0.8035,-0.1125,-0.0737,-162.5137,29.747,1.3809,2024-02-12 15:44:26.134,4.0
-0.8794,-0.0381,-0.0398,-156.7154,22.049,16.2659,2024-02-12 15:44:26.151,4.0
-0.8796,-0.145,-0.0042,-148.9563,14.9841,27.1912,2024-02-12 15:44:26.176,4.0
-0.7932,-0.4919,-0.1477,-128.212,27.7176,26.825,2024-02-12 15:44:26.192,4.0
-0.79,-0.6099,-0.3906,-84.5413,86.6776,-14.7858,2024-02-12 15:44:26.208,4.0
-1.0713,-0.6169,-0.1042,-57.0679,58.0673,-68.2297,2024-02-12 15:44:26.232,4.0
-1.4663,-0.5654,0.1313,-55.9006,-8.11,-64.5523,2024-02-12 15:44:26.240,4.0
-1.0891,0.0068,0.054,-57.9453,-79.1473,-24.5819,2024-02-12 15:44:26.264,4.0
-0.8013,0.3103,-0.1025,-62.5,-88.9053,3.6545,2024-02-12 15:44:26.281,4.0
-0.6086,0.6035,-0.3284,-75.5081,-35.553,20.6985,2024-02-12 15:44:26.305,4.0
-0.5723,0.6091,-0.4282,-86.8073,31.5323,1.6251,2024-02-12 15:44:26.313,4.0
-0.8896,0.3018,-0.4529,-112.1368,44.8532,-17.2806,2024-02-12 15:44:26.337,4.0
-1.0227,-0.009,-0.116,-116.3406,13.1531,-13.298,2024-02-12 15:44:26.361,4.0
-0.9778,-0.0964,0.0044,-106.5979,-9.0027,-8.7738,2024-02-12 15:44:26.370,4.0
-0.8352,-0.1357,-0.1445,-98.8693,-7.0343,-4.9896,2024-02-12 15:44:26.386,4.0
-0.7192,-0.1592,-0.1497,-91.6672,-0.1907,-4.6997,2024-02-12 15:44:26.410,4.0
-0.7087,-0.0823,-0.03,-84.5566,1.7242,-5.5084,2024-02-12 15:44:26.434,4.0
-0.7217,-0.0571,0.0508,-76.0803,5.0964,-7.5607,2024-02-12 15:44:26.450,4.0
-0.7603,-0.0569,0.0376,-66.8564,7.7591,-9.079,2024-02-12 15:44:26.467,4.0
-0.8083,-0.0249,0.0645,-57.8003,6.4774,-5.3253,2024-02-12 15:44:26.492,4.0
-0.8103,0.0864,0.0151,-50.0488,4.6768,-2.4567,2024-02-12 15:44:26.502,4.0
-0.7473,0.1367,-0.0215,-48.4695,3.5248,-2.5635,2024-02-12 15:44:26.518,4.0
-0.7249,0.1101,-0.0066,-49.2859,3.0823,-5.8899,2024-02-12 15:44:26.542,4.0
-0.7341,0.0803,0.0024,-45.9366,1.5564,-10.2844,2024-02-12 15:44:26.550,4.0
-0.7437,0.1125,-0.0264,-47.226,-3.418,-14.74,2024-02-12 15:44:26.567,4.0
-0.8044,0.1423,0.0337,-47.9202,-5.9967,-17.8223,2024-02-12 15:44:26.588,4.0
-0.8679,0.1182,0.0071,-46.1655,-9.6054,-15.213,2024-02-12 15:44:26.612,4.0
-0.8918,0.0481,0.041,-45.0287,-19.4931,-12.7869,2024-02-12 15:44:26.628,4.0
-0.8738,0.0142,0.1216,-39.7873,-32.5928,-12.2223,2024-02-12 15:44:26.636,4.0
-0.7988,-0.0156,0.1179,-30.6244,-41.008,-11.5814,2024-02-12 15:44:26.660,4.0
-0.7693,-0.0278,0.134,-23.201,-36.0641,-15.9988,2024-02-12 15:44:26.677,4.0
-0.7776,0.0151,0.1345,-18.5623,-28.244,-19.2795,2024-02-12 15:44:26.701,4.0
-0.7852,0.0522,-0.0264,-16.8991,-13.8702,-22.377,2024-02-12 15:44:26.712,4.0
-0.9153,0.2371,-0.5125,-18.3029,29.1367,-19.9966,2024-02-12 15:44:26.736,4.0
-1.3472,0.1138,-0.5269,-40.2832,76.8433,-10.498,2024-02-12 15:44:26.753,4.0
-1.4568,0.1582,-0.0601,-49.6979,22.3999,10.9482,2024-02-12 15:44:26.769,4.0
-1.1716,-0.1042,0.104,-37.4527,-90.0345,22.85,2024-02-12 15:44:26.793,4.0
-0.6895,-0.21,-0.1108,-27.6413,-137.2757,24.8337,2024-02-12 15:44:26.802,4.0
-0.2483,-0.1074,-0.0837,-22.8424,-107.7118,15.1825,2024-02-12 15:44:26.826,4.0
-0.0649,0.0464,-0.0774,-16.7542,-27.7405,-10.2158,2024-02-12 15:44:26.843,4.0
-0.2959,0.1387,-0.1187,-7.9727,52.8717,-41.9998,2024-02-12 15:44:26.867,4.0
-0.8064,0.1514,-0.3467,-17.1814,85.4492,-49.5148,2024-02-12 15:44:26.883,4.0
-1.2478,-0.0981,-0.3333,-36.972,61.0504,-21.0266,2024-02-12 15:44:26.899,4.0
-1.0789,-0.2625,0.1077,-30.8762,-17.9825,-12.7258,2024-02-12 15:44:26.916,4.0
-0.8716,-0.2158,0.1267,-13.1836,-35.6903,-18.5394,2024-02-12 15:44:26.933,4.0
-0.6816,-0.0903,-0.0728,-6.8588,-6.2637,-35.4462,2024-02-12 15:44:26.949,4.0
-0.7944,-0.0132,-0.1067,-10.4141,33.5236,-46.936,2024-02-12 15:44:26.982,4.0
-1.0015,-0.0085,-0.0283,-12.352,43.8919,-51.4069,2024-02-12 15:44:26.991,4.0
-1.2852,-0.1184,0.02,-8.1787,19.5007,-49.0723,2024-02-12 15:44:27.016,4.0
-1.2859,-0.2356,0.0139,-1.8005,-13.3057,-34.9503,2024-02-12 15:44:27.032,4.0
-1.1077,-0.2556,-0.0044,1.8692,-41.0919,-25.4593,2024-02-12 15:44:27.049,4.0
-0.8789,-0.229,0.0027,2.449,-52.7878,-23.3231,2024-02-12 15:44:27.065,4.0
-0.7144,-0.209,0.0134,1.4038,-50.354,-24.1852,2024-02-12 15:44:27.081,4.0
-0.5696,-0.1785,-0.02,-2.7008,-37.3077,-25.3448,2024-02-12 15:44:27.107,4.0
-0.5271,-0.1453,0.0269,-6.8893,-21.1639,-22.7814,2024-02-12 15:44:27.123,4.0
-0.5735,-0.1482,0.0811,-10.0784,-3.5248,-14.4882,2024-02-12 15:44:27.139,4.0
-0.6194,-0.1533,0.1086,-12.6266,9.2621,-1.6403,2024-02-12 15:44:27.156,4.0
-0.6543,-0.0979,0.0923,-16.7847,7.1335,11.4594,2024-02-12 15:44:27.172,4.0
-0.624,-0.0703,0.0886,-22.2778,-2.6016,25.2151,2024-02-12 15:44:27.196,4.0
-0.5798,-0.1052,0.0796,-25.9705,-8.7585,34.3475,2024-02-12 15:44:27.212,4.0
-0.531,-0.136,0.0618,-27.5345,-14.5264,39.1464,2024-02-12 15:44:27.228,4.0
-0.4365,-0.125,0.062,-26.6876,-28.6636,39.4897,2024-02-12 15:44:27.257,4.0
-0.4062,-0.1189,0.0928,-30.7312,-33.1497,37.5519,2024-02-12 15:44:27.273,4.0
-0.4109,-0.0852,0.1765,-32.5699,-21.1105,34.5688,2024-02-12 15:44:27.281,4.0
-0.4194,-0.0295,0.3035,-30.1514,-5.9586,30.8685,2024-02-12 15:44:27.298,4.0
-0.4526,0.0164,0.3328,-20.8664,5.9128,26.6647,2024-02-12 15:44:27.322,4.0
-0.5361,-0.0369,0.1924,-15.8691,11.3449,24.4064,2024-02-12 15:44:27.339,4.0
-0.7168,-0.1157,0.1089,-17.8833,10.0784,25.0244,2024-02-12 15:44:27.364,4.0
-0.8254,-0.1951,0.0608,-23.1934,-6.0654,28.6331,2024-02-12 15:44:27.380,4.0
-0.7881,-0.2385,0.0125,-27.4048,-46.6843,30.3345,2024-02-12 15:44:27.397,4.0
-0.5674,-0.2483,-0.2205,-26.4053,-57.0602,25.6958,2024-02-12 15:44:27.413,4.0
-0.4146,-0.0908,-0.5713,-28.2211,-6.9962,-0.5569,2024-02-12 15:44:27.438,4.0
-0.5901,-0.0264,-0.6057,-22.2473,71.7545,-46.6309,2024-02-12 15:44:27.454,4.0
-1.0635,0.01,-0.4319,-16.4337,120.4681,-69.9844,2024-02-12 15:44:27.470,4.0
-1.572,-0.2454,-0.252,3.1433,129.3793,-67.4667,2024-02-12 15:44:27.502,4.0
-2.1836,0.1123,-0.292,24.9405,145.0577,-80.3604,2024-02-12 15:44:27.511,4.0
-2.4829,-0.0857,-0.1052,-18.8675,-27.0157,0.7324,2024-02-12 15:44:27.527,4.0
-1.7434,-0.176,-0.1067,-16.8915,-125.1678,56.4575,2024-02-12 15:44:27.546,4.0
-0.887,-0.0525,0.0776,-14.2517,-88.2492,58.96,2024-02-12 15:44:27.562,4.0
-0.9075,0.0085,-0.0034,-11.1847,-23.7656,52.0935,2024-02-12 15:44:27.586,4.0
-1.0408,0.2412,-0.0852,-10.8871,23.407,39.1464,2024-02-12 15:44:27.603,4.0
-1.0835,0.365,-0.1248,-18.7531,7.4997,31.7307,2024-02-12 15:44:27.627,4.0
-0.8984,0.208,-0.042,-20.462,-25.7568,32.8903,2024-02-12 15:44:27.635,4.0
-0.6042,0.0022,0.0051,-16.8839,-38.147,30.6702,2024-02-12 15:44:27.668,4.0
-0.3684,-0.0662,-0.0166,-13.1607,-23.8724,16.037,2024-02-12 15:44:27.677,4.0
-0.2629,-0.0178,0.0493,-7.5226,-1.236,-3.8376,2024-02-12 15:44:27.701,4.0
-0.2207,0.0632,0.1287,-1.9302,-0.5341,-14.267,2024-02-12 15:44:27.718,4.0
-0.3296,0.0776,0.157,6.2485,-2.1133,-19.0735,2024-02-12 15:44:27.734,4.0
-0.3845,0.0403,0.1367,16.1819,-11.2152,-18.3487,2024-02-12 15:44:27.750,4.0
-0.3259,0.0959,0.0784,17.0746,-23.9868,-22.4762,2024-02-12 15:44:27.766,4.0
-0.3184,0.2075,0.2034,13.2446,-39.7263,-28.0991,2024-02-12 15:44:27.792,4.0
-0.2187,0.1914,0.2202,12.1307,-57.4036,-34.6603,2024-02-12 15:44:27.817,4.0
-0.1475,0.0496,0.1958,2.121,-81.337,-48.1796,2024-02-12 15:44:27.825,4.0
-0.2161,-0.1255,0.2139,-7.2174,-66.8793,-47.0047,2024-02-12 15:44:27.841,4.0
-0.3474,-0.189,0.1934,-4.2191,-5.9738,-42.717,2024-02-12 15:44:27.866,4.0
-0.5942,0.0032,0.1147,0.8011,33.7067,-35.5225,2024-02-12 15:44:27.882,4.0
-0.7385,0.1077,-0.0239,4.5776,20.9274,-24.1928,2024-02-12 15:44:27.908,4.0
-0.7402,0.1858,-0.1047,0.3128,-30.632,-9.5749,2024-02-12 15:44:27.916,4.0
-0.4954,0.1125,-0.3083,-19.9127,-34.4391,-12.4435,2024-02-12 15:44:27.966,4.0
-0.7478,-0.043,-0.4614,-24.559,53.7338,-22.049,2024-02-12 15:44:27.966,4.0
-1.2356,-0.1255,-0.5198,-35.5148,168.5486,-23.2925,2024-02-12 15:44:27.982,4.0
-1.5713,-0.0037,-0.7283,-46.463,189.1556,-15.2969,2024-02-12 15:44:27.998,4.0
-2.5596,-0.2095,-0.824,-71.7773,83.1146,-1.9455,2024-02-12 15:44:28.015,4.0
-2.7283,-0.9124,-0.2708,-70.2896,31.3034,13.2523,2024-02-12 15:44:28.031,4.0
-2.0203,-0.7065,-0.0569,-22.7585,-87.5015,16.6473,2024-02-12 15:44:28.047,4.0
-1.2825,-0.3413,-0.1406,-12.9929,-156.6391,-2.6474,2024-02-12 15:44:28.072,4.0
-0.8821,-0.021,0.0369,-14.473,-120.7733,-22.4991,2024-02-12 15:44:28.088,4.0
-0.8672,-0.1113,-0.0605,-14.8239,-20.8511,-33.7219,2024-02-12 15:44:28.112,4.0
-1.0933,-0.354,-0.1113,-23.2391,38.0554,-31.311,2024-02-12 15:44:28.128,4.0
-1.1409,-0.4199,-0.0776,-22.4152,2.7313,-26.8097,2024-02-12 15:44:28.144,4.0
-1.0105,-0.3621,-0.1018,-23.9029,-36.85,-18.5928,2024-02-12 15:44:28.161,4.0
-0.7493,-0.2319,-0.095,-27.5955,-35.965,-12.0544,2024-02-12 15:44:28.177,4.0
-0.7649,-0.0937,-0.1042,-37.6816,-13.8626,-6.0043,2024-02-12 15:44:28.201,4.0
-0.4932,0.0115,-0.0691,-53.7033,10.5515,-3.479,2024-02-12 15:44:28.217,4.0
-0.4844,0.0449,0.0479,-69.4122,21.6522,-0.2747,2024-02-12 15:44:28.233,4.0
-0.5125,0.0527,0.1128,-81.8024,23.0865,3.6545,2024-02-12 15:44:28.269,4.0
-0.5491,0.0271,0.0857,-91.2704,22.3694,8.3923,2024-02-12 15:44:28.269,4.0
-0.5503,-0.0557,0.0823,-99.884,16.1133,13.6032,2024-02-12 15:44:28.294,4.0
-0.5627,-0.0581,0.1143,-104.0192,7.1182,20.6985,2024-02-12 15:44:28.310,4.0
-0.5923,-0.0176,0.083,-108.6426,0.946,24.4217,2024-02-12 15:44:28.329,4.0
-0.6348,0.0049,-0.0623,-117.1417,-7.3624,28.5492,2024-02-12 15:44:28.345,4.0
-0.657,0.0117,-0.2322,-121.9482,-12.8784,34.9121,2024-02-12 15:44:28.369,4.0
-0.6047,0.0342,-0.3689,-121.1777,-3.2883,36.5601,2024-02-12 15:44:28.385,4.0
-0.5703,-0.0962,-0.5127,-118.1717,25.8179,31.8909,2024-02-12 15:44:28.427,4.0
-0.7061,-0.2517,-0.5212,-115.448,66.2613,22.6212,2024-02-12 15:44:28.427,4.0
-0.9021,-0.2246,-0.4614,-111.9614,101.5701,7.103,2024-02-12 15:44:28.435,4.0
-1.093,-0.1694,-0.5369,-104.9805,85.5408,-5.3864,2024-02-12 15:44:28.467,4.0
-1.0713,-0.1995,-0.5962,-99.5941,72.6624,-17.8146,2024-02-12 15:44:28.476,4.0
-1.2412,0.0093,-0.3345,-87.6389,66.6275,-27.7634,2024-02-12 15:44:28.500,4.0
-1.3418,0.0032,-0.0049,-85.8078,28.7781,-13.6795,2024-02-12 15:44:28.516,4.0
-1.2056,-0.0518,0.1494,-86.731,-19.4092,6.6757,2024-02-12 15:44:28.533,4.0
-0.9556,-0.0359,0.0903,-96.1151,-31.3797,22.3694,2024-02-12 15:44:28.557,4.0
-0.7505,-0.0381,0.1218,-93.0023,-15.6937,22.1252,2024-02-12 15:44:28.566,4.0
-0.8562,-0.0225,0.1099,-83.6945,6.3934,18.1198,2024-02-12 15:44:28.591,4.0
-0.9827,-0.02,0.0754,-83.5876,4.8828,13.9313,2024-02-12 15:44:28.604,4.0
-0.9961,-0.0071,0.0103,-82.8552,7.6294,12.8479,2024-02-12 15:44:28.628,4.0
-0.9036,0.0937,-0.0491,-86.1511,11.9858,15.152,2024-02-12 15:44:28.644,4.0
-0.7908,0.1658,-0.1099,-90.1642,19.2947,20.7748,2024-02-12 15:44:28.661,4.0
-0.6746,0.2253,-0.2119,-94.9402,27.298,22.3007,2024-02-12 15:44:28.677,4.0
-0.624,0.2097,-0.1355,-100.2579,27.2522,17.6086,2024-02-12 15:44:28.694,4.0
-0.625,0.1833,-0.0151,-101.3489,17.7689,11.9171,2024-02-12 15:44:28.719,4.0
-0.5493,0.2119,0.0129,-97.5342,9.3307,4.1504,2024-02-12 15:44:28.735,4.0
-0.5186,0.2312,0.0134,-95.4742,16.4948,-6.897,2024-02-12 15:44:28.760,4.0
-0.4934,0.2395,-0.0554,-94.7952,26.2375,-19.3481,2024-02-12 15:44:28.776,4.0
-0.5183,0.229,-0.1177,-93.483,28.9688,-30.1361,2024-02-12 15:44:28.792,4.0
-0.5635,0.1899,-0.1716,-95.5429,32.1274,-36.3464,2024-02-12 15:44:28.809,4.0
-0.6162,0.1628,-0.2109,-98.1903,37.8876,-41.5421,2024-02-12 15:44:28.833,4.0
-0.667,0.1606,-0.2341,-102.9816,40.3671,-48.3246,2024-02-12 15:44:28.849,4.0
-0.7424,0.1802,-0.1802,-107.399,40.5884,-55.397,2024-02-12 15:44:28.866,4.0
-0.7754,0.2024,-0.2192,-110.8932,38.269,-57.5333,2024-02-12 15:44:28.882,4.0
-0.7908,0.2007,-0.2039,-114.3112,46.4706,-62.027,2024-02-12 15:44:28.901,4.0
-0.8794,0.2253,-0.2156,-116.7221,54.2297,-67.3599,2024-02-12 15:44:28.918,4.0
-0.9668,0.217,-0.2563,-117.897,52.8336,-68.8477,2024-02-12 15:44:28.942,4.0
-1.0374,0.2205,-0.2754,-118.8049,44.6701,-68.718,2024-02-12 15:44:28.960,4.0
-1.0867,0.2124,-0.2583,-120.7199,32.9971,-65.3,2024-02-12 15:44:28.980,4.0
-1.1353,0.2354,-0.2021,-119.8273,22.7737,-61.3327,2024-02-12 15:44:28.993,4.0
-1.1187,0.2275,-0.2085,-117.8894,9.8953,-56.5567,2024-02-12 15:44:29.018,4.0
-1.095,0.229,-0.2561,-117.5766,3.7918,-50.1785,2024-02-12 15:44:29.035,4.0
-1.0852,0.3474,-0.26,-118.2709,1.5945,-42.5949,2024-02-12 15:44:29.051,4.0
-1.072,0.49,-0.3533,-122.6654,7.3776,-36.438,2024-02-12 15:44:29.067,4.0
-1.1685,0.3999,-0.1826,-132.2708,15.3198,-28.2822,2024-02-12 15:44:29.093,4.0
-1.1604,0.1467,0.0483,-127.4872,12.3291,-22.1863,2024-02-12 15:44:29.101,4.0
-0.8147,0.1753,-0.3374,-116.2262,-5.9814,-43.3044,2024-02-12 15:44:29.125,4.0
-0.6594,0.157,-0.4341,-121.1853,-41.7023,-79.5898,2024-02-12 15:44:29.142,4.0
-0.5808,0.0813,-0.3469,-129.1885,-62.0422,-92.6743,2024-02-12 15:44:29.158,4.0
-0.5193,-0.001,-0.3076,-125.4272,-47.3251,-95.6192,2024-02-12 15:44:29.174,4.0
-0.5676,-0.1113,-0.3677,-117.2409,-7.1716,-106.4911,2024-02-12 15:44:29.193,4.0
-0.875,-0.239,-0.4224,-109.8709,23.056,-104.3167,2024-02-12 15:44:29.218,4.0
-1.1479,-0.313,-0.2832,-105.072,25.032,-94.4138,2024-02-12 15:44:29.234,4.0
-1.1917,-0.3069,-0.2659,-102.6917,-9.613,-83.168,2024-02-12 15:44:29.259,4.0
-1.0825,-0.3096,-0.2214,-107.1014,-69.0231,-84.053,2024-02-12 15:44:29.275,4.0
-0.9287,-0.3066,-0.1152,-104.9271,-96.4966,-82.489,2024-02-12 15:44:29.293,4.0
-0.7683,-0.2644,-0.0669,-100.8911,-97.9385,-82.6569,2024-02-12 15:44:29.309,4.0
-0.7473,-0.187,-0.0337,-94.4901,-80.5664,-77.3773,2024-02-12 15:44:29.334,4.0
-0.6609,-0.1895,-0.1526,-87.1811,-61.1649,-65.2008,2024-02-12 15:44:29.342,4.0
-0.6279,-0.1892,-0.2288,-88.8443,-48.9731,-62.5916,2024-02-12 15:44:29.367,4.0
-0.6521,-0.1543,-0.1272,-93.689,-47.3862,-66.7725,2024-02-12 15:44:29.392,4.0
-0.7466,-0.1318,-0.0127,-95.3064,-51.1322,-66.6885,2024-02-12 15:44:29.409,4.0
-0.7642,-0.1699,0.0537,-92.4759,-63.0875,-62.7441,2024-02-12 15:44:29.418,4.0
-0.7427,-0.1917,0.0403,-86.7233,-86.38,-51.5976,2024-02-12 15:44:29.442,4.0
-0.5867,-0.2537,-0.0098,-82.3517,-93.6966,-39.1083,2024-02-12 15:44:29.459,4.0
-0.4521,-0.3228,-0.01,-80.1468,-80.6122,-31.9519,2024-02-12 15:44:29.475,4.0
-0.3562,-0.3787,0.0217,-80.864,-52.0248,-30.8838,2024-02-12 15:44:29.493,4.0
-0.4568,-0.4197,0.0874,-83.1757,-46.3257,-30.8914,2024-02-12 15:44:29.510,4.0
-0.522,-0.3669,0.239,-88.974,-48.9578,-23.9029,2024-02-12 15:44:29.534,4.0
-0.4639,-0.2908,0.3059,-91.6748,-36.4838,-19.9356,2024-02-12 15:44:29.551,4.0
-0.5085,-0.1511,0.4087,-91.8732,-9.201,-16.8457,2024-02-12 15:44:29.567,4.0
-0.5378,-0.0786,0.4316,-94.2841,5.867,-14.2975,2024-02-12 15:44:29.593,4.0
-0.4932,-0.1331,0.4529,-105.3619,18.7759,-18.8065,2024-02-12 15:44:29.610,4.0
-0.7153,-0.2122,0.5881,-111.9614,22.7737,-19.9051,2024-02-12 15:44:29.626,4.0
-0.7786,-0.3777,0.0374,-90.3015,20.5841,-26.9394,2024-02-12 15:44:29.642,4.0
-1.6929,-0.834,0.6858,-82.8094,61.6531,-86.0825,2024-02-12 15:44:29.667,4.0
-2.2026,-1.0154,0.1299,8.2245,89.9658,-48.4619,2024-02-12 15:44:29.683,4.0
-1.3904,-0.2639,-0.5659,-14.3585,15.8386,34.4391,2024-02-12 15:44:29.691,4.0
-0.5713,-0.0054,-0.1631,-46.3486,-53.3524,36.3007,2024-02-12 15:44:29.716,4.0
-0.344,-0.2397,-0.252,-34.3781,-11.4365,22.8806,2024-02-12 15:44:29.732,4.0
-0.5356,-0.5417,-0.467,-28.6102,52.4521,4.4708,2024-02-12 15:44:29.757,4.0
-1.1082,-0.574,-0.2327,-28.2516,62.706,-5.2567,2024-02-12 15:44:29.765,4.0
-1.3997,-0.4858,0.0242,-10.2463,17.9901,13.8245,2024-02-12 15:44:29.789,4.0
-1.27,-0.3853,-0.0735,8.2321,-21.1334,33.493,2024-02-12 15:44:29.805,4.0
-1.0217,-0.2869,-0.1736,13.6185,-47.1649,46.2036,2024-02-12 15:44:29.830,4.0
-0.821,-0.1858,-0.1602,9.552,-52.7039,51.0178,2024-02-12 15:44:29.838,4.0
-0.6855,-0.1431,-0.135,1.4191,-35.9421,46.1807,2024-02-12 15:44:29.870,4.0
-0.656,-0.1091,-0.1599,-7.0801,-0.0305,38.559,2024-02-12 15:44:29.878,4.0
-0.7063,-0.0344,-0.1704,-15.2664,25.6882,32.6233,2024-02-12 15:44:29.903,4.0
-0.8044,0.0989,-0.2048,-28.2516,26.7792,32.5241,2024-02-12 15:44:29.919,4.0
-0.8445,0.1477,-0.2175,-40.1306,15.2054,40.0238,2024-02-12 15:44:29.935,4.0
-0.7593,0.1179,-0.2075,-49.5682,7.5912,46.4478,2024-02-12 15:44:29.951,4.0
-0.6907,0.0095,-0.1663,-54.3365,8.2703,48.912,2024-02-12 15:44:29.968,4.0
-0.6748,-0.0977,-0.0933,-56.0532,12.8632,53.5965,2024-02-12 15:44:29.989,4.0
-0.6682,-0.1714,0.04,-51.7426,8.7662,59.7305,2024-02-12 15:44:30.005,4.0
-0.615,-0.2234,0.0791,-44.2352,-0.3204,62.1948,2024-02-12 15:44:30.021,4.0
-0.5339,-0.2263,0.0962,-33.783,-11.1389,59.9976,2024-02-12 15:44:30.044,4.0
-0.4858,-0.1731,0.0742,-27.2827,-12.1155,54.1458,2024-02-12 15:44:30.060,4.0
-0.406,-0.0312,0.0872,-18.3945,-4.3106,46.8903,2024-02-12 15:44:30.077,4.0
-0.3594,0.0752,0.0356,-10.4599,9.3689,33.1345,2024-02-12 15:44:30.102,4.0
-0.4687,0.104,0.0281,-4.8218,20.3705,22.1863,2024-02-12 15:44:30.121,4.0
-0.4521,0.0728,0.0422,-1.2817,16.2735,11.5509,2024-02-12 15:44:30.137,4.0
-0.4729,0.0662,0.0703,0.9537,11.8942,-2.4796,2024-02-12 15:44:30.161,4.0
-0.5359,0.0737,0.1155,5.6686,15.1062,-18.4708,2024-02-12 15:44:30.169,4.0
-0.686,0.1147,0.1589,9.8114,14.2136,-31.3339,2024-02-12 15:44:30.194,4.0
-0.8665,0.1023,0.2344,9.1019,2.8763,-33.9127,2024-02-12 15:44:30.210,4.0
-0.99,0.0884,0.2876,6.1417,-5.4245,-24.1623,2024-02-12 15:44:30.227,4.0
-1.0046,0.0581,0.2881,1.4343,-6.6223,-10.2005,2024-02-12 15:44:30.244,4.0
-0.9937,0.0437,0.3564,1.5106,-5.3177,-5.2567,2024-02-12 15:44:30.268,4.0
-0.9824,0.0552,0.2219,8.4991,3.2578,-0.2136,2024-02-12 15:44:30.284,4.0
-1.0088,0.1614,-0.2021,13.5269,44.6396,4.0359,2024-02-12 15:44:30.309,4.0
-1.3228,0.1846,-0.3879,12.2452,95.108,11.94,2024-02-12 15:44:30.325,4.0
-1.8552,0.009,-0.0615,7.9117,98.1522,41.481,2024-02-12 15:44:30.349,4.0
-1.4536,0.082,-0.0686,7.3166,18.9514,56.6788,2024-02-12 15:44:30.358,4.0
-0.5056,0.3652,-0.4453,-8.2474,-75.0809,8.1177,2024-02-12 15:44:30.374,4.0
-0.4353,0.3672,-0.3032,-13.6337,-57.1518,-11.8179,2024-02-12 15:44:30.399,4.0
-0.6526,0.2312,-0.4602,-12.886,18.2114,-27.1759,2024-02-12 15:44:30.415,4.0
-1.0645,-0.0488,-0.5151,-20.2332,46.4096,-19.989,2024-02-12 15:44:30.432,4.0
-1.2297,-0.0779,-0.4717,-32.8293,-13.1454,-2.4948,2024-02-12 15:44:30.448,4.0
-1.1511,-0.1904,-0.248,-41.42,-35.2936,-0.9995,2024-02-12 15:44:30.472,4.0
-0.9587,-0.261,-0.0596,-31.5704,-43.0908,-13.0539,2024-02-12 15:44:30.505,4.0
-0.8372,-0.2402,-0.0845,-20.4391,-45.3873,-23.7579,2024-02-12 15:44:30.513,4.0
-0.8025,-0.1895,-0.1558,-16.2125,-41.8396,-33.432,2024-02-12 15:44:30.521,4.0
-0.7793,-0.1333,-0.217,-18.9285,-32.4707,-44.1666,2024-02-12 15:44:30.538,4.0
-0.8091,-0.1169,-0.1565,-21.8506,-41.4963,-42.2821,2024-02-12 15:44:30.562,4.0
-0.8042,-0.1428,-0.1128,-24.0707,-54.657,-35.7819,2024-02-12 15:44:30.578,4.0
-0.6938,-0.1702,-0.0432,-27.0844,-67.0242,-27.5726,2024-02-12 15:44:30.602,4.0
-0.5916,-0.1858,0.0178,-26.5198,-65.5746,-21.8506,2024-02-12 15:44:30.618,4.0
-0.4631,-0.2012,0.0144,-24.086,-52.597,-18.1198,2024-02-12 15:44:30.634,4.0
-0.3774,-0.1653,-0.0098,-24.025,-34.9808,-16.4337,2024-02-12 15:44:30.659,4.0
-0.3608,-0.1443,-0.0024,-24.8032,-15.0681,-14.9002,2024-02-12 15:44:30.667,4.0
-0.4434,-0.1184,0.082,-25.0092,4.2953,-9.0561,2024-02-12 15:44:30.700,4.0
-0.5591,-0.094,0.1414,-23.9868,16.1285,-0.4425,2024-02-12 15:44:30.708,4.0
-0.6584,-0.0769,0.1543,-24.4293,18.6996,10.3455,2024-02-12 15:44:30.724,4.0
-0.7085,-0.0908,0.1868,-25.7721,11.1923,18.7836,2024-02-12 15:44:30.742,4.0
-0.7227,-0.1047,0.2192,-24.8947,-1.9531,23.4604,2024-02-12 15:44:30.758,4.0
-0.7793,-0.1025,0.1411,-26.8326,-8.6136,26.3367,2024-02-12 15:44:30.774,4.0
-0.7534,-0.1025,0.0095,-35.0113,-7.7744,25.5356,2024-02-12 15:44:30.808,4.0
-0.7808,-0.0374,-0.0474,-47.8821,-0.8926,16.922,2024-02-12 15:44:30.824,4.0
-0.8091,0.0945,0.0325,-60.8597,12.7029,9.491,2024-02-12 15:44:30.832,4.0
-0.8499,0.1838,0.0862,-64.415,24.91,-5.1422,2024-02-12 15:44:30.851,4.0
-0.9675,-0.0154,0.0969,-69.0384,32.8445,-21.4615,2024-02-12 15:44:30.867,4.0
-1.1689,-0.2549,0.3167,-69.7021,29.5639,-27.4124,2024-02-12 15:44:30.884,4.0
-1.2424,-0.2334,0.4292,-60.3485,15.5487,-19.8441,2024-02-12 15:44:30.933,4.0
-1.1145,-0.1865,0.426,-56.9916,-2.0828,-13.3209,2024-02-12 15:44:30.933,4.0
-0.9619,-0.2375,0.4656,-59.1736,-7.8506,-12.0163,2024-02-12 15:44:30.943,4.0
-0.6697,-0.7551,0.1335,-58.5327,21.0648,-17.9062,2024-02-12 15:44:30.959,4.0
-0.8706,-0.5847,0.1777,-46.7224,101.3184,-66.3376,2024-02-12 15:44:30.975,4.0
-1.5173,-0.1265,0.1331,-11.3373,86.2122,-68.0847,2024-02-12 15:44:31.000,4.0
-1.3169,-0.5854,-0.2454,17.8833,35.6598,-43.2129,2024-02-12 15:44:31.009,4.0
-1.1438,-0.572,-0.3965,46.6614,-28.2745,-37.262,2024-02-12 15:44:31.032,4.0
-0.782,-0.3313,-0.5688,51.7883,-71.6858,-27.0538,2024-02-12 15:44:31.042,4.0
-0.5215,-0.0449,-0.481,27.4963,-77.9114,-11.4975,2024-02-12 15:44:31.091,4.0
-0.4863,-0.0349,-0.2422,-0.0381,-51.4374,13.1454,2024-02-12 15:44:31.091,4.0
-0.5095,0.0242,-0.051,-10.2234,-2.7237,29.5334,2024-02-12 15:44:31.100,4.0
-0.696,0.1362,-0.1128,-15.8615,35.2554,17.2424,2024-02-12 15:44:31.116,4.0
-1.1594,0.168,-0.1589,-15.4724,42.4271,8.7128,2024-02-12 15:44:31.140,4.0
-1.3325,-0.0159,-0.2002,-15.1291,9.9335,19.7678,2024-02-12 15:44:31.159,4.0
-1.1335,-0.1245,-0.0811,-15.3503,-47.1268,32.3486,2024-02-12 15:44:31.183,4.0
-0.8459,-0.2649,-0.0662,-6.8741,-70.1828,33.4549,2024-02-12 15:44:31.192,4.0
-0.6626,-0.353,-0.0813,3.3569,-45.4788,38.5132,2024-02-12 15:44:31.215,4.0
-0.6182,-0.3062,-0.0295,14.9994,-9.2773,44.4183,2024-02-12 15:44:31.232,4.0
-0.6846,-0.2041,0.0254,25.8408,12.3138,47.2717,2024-02-12 15:44:31.251,4.0
-0.7688,-0.1367,0.0964,37.4069,7.8735,44.8532,2024-02-12 15:44:31.268,4.0
-0.7793,-0.1331,0.0828,48.1415,-11.6043,42.3813,2024-02-12 15:44:31.284,4.0
-0.7126,-0.1116,0.0557,56.4194,-23.0026,42.1371,2024-02-12 15:44:31.308,4.0
-0.5312,-0.0513,0.0593,64.27,-34.2331,38.353,2024-02-12 15:44:31.324,4.0
-0.3604,0.0063,0.0767,68.1915,-27.3972,28.5873,2024-02-12 15:44:31.343,4.0
-0.2766,0.0566,0.0759,70.5414,-6.5842,14.1373,2024-02-12 15:44:31.359,4.0
-0.3191,0.0923,0.1765,72.5555,22.2092,-1.4877,2024-02-12 15:44:31.376,4.0
-0.4978,0.0535,0.2761,80.7266,45.929,-16.7313,2024-02-12 15:44:31.400,4.0
-0.7244,0.0232,0.1985,88.295,42.1066,-24.971,2024-02-12 15:44:31.417,4.0
-0.9412,0.0164,0.0178,88.5391,23.5367,-19.7754,2024-02-12 15:44:31.441,4.0
-0.9666,0.033,-0.1912,76.5457,-2.1973,-8.2245,2024-02-12 15:44:31.459,4.0
-0.9551,0.104,-0.1169,56.7093,-4.2648,-4.2801,2024-02-12 15:44:31.475,4.0
-1.0085,0.0674,0.113,46.7072,11.7722,-4.3411,2024-02-12 15:44:31.499,4.0
-1.1326,0.1228,0.2454,46.5164,45.3644,3.4866,2024-02-12 15:44:31.499,4.0
-1.1882,0.1111,0.2817,51.5594,53.1464,8.5831,2024-02-12 15:44:31.515,4.0
-1.1665,0.0762,0.2708,45.2194,22.9416,11.7645,2024-02-12 15:44:31.540,4.0
-1.0681,-0.0056,0.4404,46.051,-11.6806,6.073,2024-02-12 15:44:31.564,4.0
-0.9397,0.262,0.0911,58.4946,1.0452,6.3477,2024-02-12 15:44:31.572,4.0
-1.0867,0.1614,-0.4385,31.5857,76.6907,8.2855,2024-02-12 15:44:31.596,4.0
-1.4209,0.1809,-0.1692,13.6642,75.0046,16.8762,2024-02-12 15:44:31.612,4.0
-1.3245,0.302,-0.6326,1.3199,-3.2501,40.0696,2024-02-12 15:44:31.628,4.0
-1.073,0.3413,-0.7932,-24.231,-43.7164,47.821,2024-02-12 15:44:31.644,4.0
-0.7041,-0.0005,-0.5073,-46.4554,-81.4667,57.5562,2024-02-12 15:44:31.668,4.0
-0.3247,-0.1982,-0.1665,-42.7246,-81.8176,47.2031,2024-02-12 15:44:31.685,4.0
-0.2437,-0.2883,0.0916,-15.6631,-15.6174,11.1618,2024-02-12 15:44:31.701,4.0
-0.5117,-0.293,0.1621,7.0877,49.2477,-30.5481,2024-02-12 15:44:31.718,4.0
-1.0029,-0.2151,-0.1208,15.0833,66.6122,-55.6946,2024-02-12 15:44:31.752,4.0
-1.5439,-0.0969,-0.4316,-3.2272,50.5142,-47.493,2024-02-12 15:44:31.761,4.0
-1.4553,0.0383,-0.1812,-20.1721,-47.1039,-34.2102,2024-02-12 15:44:31.777,4.0
-1.1079,0.0544,-0.0552,-23.3078,-148.4756,-26.7487,2024-02-12 15:44:31.801,4.0
-0.6711,0.1138,-0.1526,-32.608,-149.5285,-24.2004,2024-02-12 15:44:31.810,4.0
-0.3323,0.0891,-0.175,-45.7458,-114.9139,-28.7552,2024-02-12 15:44:31.835,4.0
-0.1838,0.0144,-0.1013,-58.7311,-58.9905,-38.9481,2024-02-12 15:44:31.853,4.0
-0.3474,-0.0662,0.0735,-68.2068,-7.9498,-47.5998,2024-02-12 15:44:31.861,4.0
-0.6306,-0.147,0.1667,-69.0994,21.6675,-46.2875,2024-02-12 15:44:31.885,4.0
-0.8279,-0.1797,0.1328,-66.7419,18.2266,-38.208,2024-02-12 15:44:31.901,4.0
-0.8784,-0.1816,0.1226,-63.6749,-13.6948,-20.4849,2024-02-12 15:44:31.918,4.0
-0.7002,-0.1572,0.1606,-60.9131,-37.3688,-4.0054,2024-02-12 15:44:31.942,4.0
-0.5083,-0.1448,0.2424,-57.7774,-41.0843,8.3923,2024-02-12 15:44:31.961,4.0
-0.3875,-0.1367,0.3193,-53.1387,-18.5471,18.0664,2024-02-12 15:44:31.979,4.0
-0.4348,-0.1152,0.3188,-45.9747,18.3182,26.2375,2024-02-12 15:44:32.003,4.0
-0.5884,-0.1138,0.2576,-39.4363,45.8908,31.5933,2024-02-12 15:44:32.011,4.0
-0.7454,-0.241,0.2756,-34.4772,51.9714,31.7764,2024-02-12 15:44:32.027,4.0
-0.8755,-0.3315,0.0991,-26.2985,49.4995,10.9558,2024-02-12 15:44:32.045,4.0
-1.0378,-0.2034,-0.0522,-25.8713,51.8494,-18.0435,2024-02-12 15:44:32.070,4.0
-1.0938,0.0559,0.0632,-14.0457,28.3203,-18.959,2024-02-12 15:44:32.094,4.0
-1.0547,0.0181,0.2021,-30.0827,-3.8528,-38.0096,2024-02-12 15:44:32.102,4.0
-1.051,-0.0793,0.4624,-38.8641,-2.3346,-34.7672,2024-02-12 15:44:32.119,4.0
-0.9009,0.0059,0.4067,-34.6146,10.5743,-22.3007,2024-02-12 15:44:32.143,4.0
-0.8518,-0.1165,0.3044,-45.1889,7.7515,-21.1716,2024-02-12 15:44:32.151,4.0
-0.8323,-0.5974,0.1309,-63.1332,37.8342,-45.6772,2024-02-12 15:44:32.176,4.0
-1.2703,-0.2446,0.3059,-43.045,76.6983,-69.4199,2024-02-12 15:44:32.192,4.0
-1.5522,-0.3621,0.0671,-20.668,53.3981,-47.6379,2024-02-12 15:44:32.208,4.0
-1.1946,-0.4993,-0.2437,11.1313,-7.7591,-31.7917,2024-02-12 15:44:32.233,4.0
-0.8948,-0.4963,-0.4277,14.1754,-53.3524,-38.0402,2024-02-12 15:44:32.249,4.0
-0.6345,-0.2463,-0.4143,7.4387,-70.8923,-30.8685,2024-02-12 15:44:32.273,4.0
-0.4814,-0.1052,-0.3601,-13.0768,-46.7834,-23.4375,2024-02-12 15:44:32.282,4.0
-0.6418,0.0962,-0.0024,-17.4408,0.6943,-13.3438,2024-02-12 15:44:32.323,4.0
-0.981,0.1353,-0.0374,-9.9335,42.7933,6.6528,2024-02-12 15:44:32.331,4.0
-1.1775,0.1067,-0.165,-7.1793,65.6357,16.1896,2024-02-12 15:44:32.339,4.0
-1.3438,0.0042,-0.2061,-7.9193,45.7687,26.0773,2024-02-12 15:44:32.356,4.0
-1.2219,-0.1191,-0.0022,-9.9335,-16.983,42.8085,2024-02-12 15:44:32.380,4.0
-1.0181,-0.272,0.0374,3.9978,-58.0063,51.8036,2024-02-12 15:44:32.396,4.0
-0.7446,-0.3508,-0.0879,14.3509,-57.9529,59.0057,2024-02-12 15:44:32.420,4.0
-0.5562,-0.2725,0.0364,22.438,-33.989,59.1507,2024-02-12 15:44:32.436,4.0
-0.5129,-0.1685,0.1184,33.2336,-5.188,54.4739,2024-02-12 15:44:32.452,4.0
-0.5815,-0.0999,0.1252,41.6336,10.1547,51.9104,2024-02-12 15:44:32.468,4.0
-0.6426,-0.0632,0.0857,48.0347,1.9531,48.996,2024-02-12 15:44:32.488,4.0
-0.6462,-0.0261,0.1523,50.9872,-16.0141,44.9142,2024-02-12 15:44:32.504,4.0
-0.4602,0.0168,0.1042,53.3524,-23.3459,35.1868,2024-02-12 15:44:32.529,4.0
-0.3479,0.0764,0.1167,53.7491,-12.5275,23.1476,2024-02-12 15:44:32.553,4.0
-0.2527,0.1177,0.1311,51.8951,10.4218,8.4839,2024-02-12 15:44:32.561,4.0
-0.2942,0.1233,0.2102,53.4286,34.1492,-6.6147,2024-02-12 15:44:32.577,4.0
-0.4722,0.1099,0.2197,54.5502,49.5605,-22.4838,2024-02-12 15:44:32.601,4.0
-0.7153,0.0493,0.1899,52.3911,52.8107,-28.9078,2024-02-12 15:44:32.618,4.0
-0.9985,0.0103,0.1663,51.796,43.4189,-24.3225,2024-02-12 15:44:32.634,4.0
-1.0425,0.0117,0.0107,46.1197,13.5345,-11.8942,2024-02-12 15:44:32.651,4.0
-1.0745,0.1204,-0.0959,26.3824,1.7853,-1.1749,2024-02-12 15:44:32.667,4.0
-1.1587,0.1392,0.1987,15.8691,29.2206,9.7885,2024-02-12 15:44:32.693,4.0
-1.1016,0.2173,0.3162,22.2778,48.5153,16.983,2024-02-12 15:44:32.706,4.0
-1.04,0.1929,0.1953,23.5901,46.8979,8.7738,2024-02-12 15:44:32.722,4.0
-1.0608,0.2495,0.1621,22.5754,42.3203,8.8501,2024-02-12 15:44:32.747,4.0
-1.1958,0.1836,-0.0481,24.5056,70.7474,16.1667,2024-02-12 15:44:32.755,4.0
-1.4414,0.1304,-0.1006,10.5362,79.4144,24.025,2024-02-12 15:44:32.779,4.0
-1.3584,0.335,-0.4604,-0.0076,34.0805,46.7834,2024-02-12 15:44:32.795,4.0
-1.0762,0.3528,-0.5891,-28.5034,-20.0348,51.0635,2024-02-12 15:44:32.812,4.0
-0.9272,0.2913,-0.5793,-45.2652,-51.6739,57.1594,2024-02-12 15:44:32.836,4.0
-0.6011,-0.1465,-0.4094,-53.9169,-72.3648,53.0167,2024-02-12 15:44:32.852,4.0
-0.3586,-0.3137,-0.0188,-39.9246,-66.0248,25.7187,2024-02-12 15:44:32.879,4.0
-0.4407,-0.3,0.175,-13.4201,-3.6697,-0.8698,2024-02-12 15:44:32.887,4.0
-0.7136,-0.3437,0.1443,8.9722,66.8869,-31.1661,2024-02-12 15:44:32.911,4.0
-1.198,-0.3118,-0.1885,19.783,92.3233,-46.7148,2024-02-12 15:44:32.935,4.0
-1.4224,-0.1865,-0.3955,13.6414,59.0591,-40.1077,2024-02-12 15:44:32.943,4.0
-1.3154,-0.0342,-0.1697,-2.9373,-54.4205,-35.141,2024-02-12 15:44:32.951,4.0
-1.0076,0.0352,-0.0979,-9.3231,-131.4392,-23.6053,2024-02-12 15:44:32.976,4.0
-0.5588,0.0725,-0.1248,-14.6255,-120.4758,-19.0277,2024-02-12 15:44:32.992,4.0
-0.2244,0.0425,-0.1033,-21.8887,-70.9,-32.6309,2024-02-12 15:44:33.009,4.0
-0.2019,-0.0542,-0.1042,-32.1198,-14.3356,-54.2984,2024-02-12 15:44:33.033,4.0
-0.4729,-0.1079,-0.0242,-38.9633,23.0255,-64.5523,2024-02-12 15:44:33.049,4.0
-0.7649,-0.1233,0.0891,-42.4042,19.2032,-61.1725,2024-02-12 15:44:33.065,4.0
-0.9309,-0.116,0.126,-40.3824,-9.3842,-49.0265,2024-02-12 15:44:33.081,4.0
-0.8357,-0.1189,0.0886,-41.7404,-46.6843,-29.1824,2024-02-12 15:44:33.114,4.0
-0.6335,-0.1196,0.1401,-44.0521,-58.5556,-17.334,2024-02-12 15:44:33.130,4.0
-0.4607,-0.123,0.1953,-47.5464,-45.1889,-10.4294,2024-02-12 15:44:33.138,4.0
-0.4399,-0.0767,0.2927,-46.5012,-13.8855,-1.6174,2024-02-12 15:44:33.162,4.0
-0.54,-0.0037,0.3127,-38.6963,14.9918,8.1406,2024-02-12 15:44:33.178,4.0
-0.6875,-0.0583,0.2441,-30.8456,28.1372,13.5498,2024-02-12 15:44:33.194,4.0
-0.8259,-0.2302,0.1821,-30.7922,21.4233,12.1231,2024-02-12 15:44:33.210,4.0
-0.8848,-0.2856,0.0437,-32.2418,7.7744,7.6599,2024-02-12 15:44:33.243,4.0
-0.8948,-0.106,0.124,-34.0195,-1.1978,-1.4725,2024-02-12 15:44:33.259,4.0
-0.8789,-0.0923,0.249,-38.6505,3.3875,-17.4637,2024-02-12 15:44:33.276,4.0
-0.9026,-0.1814,0.3359,-40.7104,16.3574,-29.5029,2024-02-12 15:44:33.292,4.0
-0.9507,-0.1858,0.4033,-32.7988,26.6037,-27.8931,2024-02-12 15:44:33.303,4.0
-0.9817,-0.2151,0.3916,-27.8397,21.3013,-17.4561,2024-02-12 15:44:33.335,4.0
-0.7703,-0.6382,0.0339,-38.3606,38.7192,-27.5726,2024-02-12 15:44:33.343,4.0
-1.093,-0.4514,0.252,-30.3345,84.5337,-72.9218,2024-02-12 15:44:33.360,4.0
-1.4253,-0.8269,-0.0901,0.3052,68.924,-88.356,2024-02-12 15:44:33.392,4.0
-1.4507,-0.6633,-0.0825,46.5698,16.1667,-75.1648,2024-02-12 15:44:33.392,4.0
-1.3057,-0.5183,-0.2859,56.778,-56.6864,-59.2575,2024-02-12 15:44:33.416,4.0
-1.0081,-0.2004,-0.2507,42.8543,-79.5898,-37.9791,2024-02-12 15:44:33.425,4.0
-0.6318,-0.1663,-0.3115,22.9187,-59.8297,-4.5242,2024-02-12 15:44:33.448,4.0
-0.6162,0.0747,-0.2146,2.7771,-0.4425,1.6937,2024-02-12 15:44:33.464,4.0
-0.9573,0.2349,-0.0544,-9.0485,36.6287,9.6359,2024-02-12 15:44:33.481,4.0
-1.2915,0.0957,-0.1431,-0.7248,45.9518,25.1846,2024-02-12 15:44:33.505,4.0
-1.2988,0.0322,-0.3174,-1.709,35.9421,28.7399,2024-02-12 15:44:33.530,4.0
-1.2231,0.0061,-0.1497,-14.9612,-6.4545,34.3018,2024-02-12 15:44:33.538,4.0
-1.0505,-0.1509,0.0876,-9.407,-50.2701,44.014,2024-02-12 15:44:33.554,4.0
-0.8232,-0.2544,0.0054,5.1117,-67.6193,58.3572,2024-02-12 15:44:33.570,4.0
-0.5864,-0.2036,-0.0742,5.5695,-48.0423,62.6755,2024-02-12 15:44:33.594,4.0
-0.4919,-0.1301,0.0361,7.6294,-17.4942,54.0085,2024-02-12 15:44:33.611,4.0
-0.5522,-0.0212,0.0937,11.6348,12.8326,47.4014,2024-02-12 15:44:33.627,4.0
-0.6897,0.0051,0.0967,15.5563,17.5323,47.1954,2024-02-12 15:44:33.651,4.0
-0.7009,0.0,0.0344,15.9149,-0.0839,47.7905,2024-02-12 15:44:33.667,4.0
-0.6367,0.0032,0.0503,14.0839,-23.7885,43.0069,2024-02-12 15:44:33.683,4.0
-0.4939,0.0388,0.093,12.1231,-36.0413,34.7366,2024-02-12 15:44:33.700,4.0
-0.3523,0.0696,0.1545,8.6594,-22.583,22.8653,2024-02-12 15:44:33.719,4.0
-0.3184,0.0991,0.2395,7.1869,-1.5488,11.5356,2024-02-12 15:44:33.735,4.0
-0.3677,0.0991,0.2678,11.261,18.7225,-0.1373,2024-02-12 15:44:33.752,4.0
-0.5022,0.1248,0.1846,11.6043,30.983,-6.9427,2024-02-12 15:44:33.776,4.0
-0.6375,0.1274,0.1096,9.0637,42.4118,-9.9869,2024-02-12 15:44:33.792,4.0
-0.7456,0.1379,0.0854,6.8817,49.8199,-14.9231,2024-02-12 15:44:33.808,4.0
-0.8875,0.1167,0.0232,2.3041,44.8456,-15.3427,2024-02-12 15:44:33.833,4.0
-1.1284,0.1069,0.0615,-3.624,55.4504,-4.4174,2024-02-12 15:44:33.852,4.0
-1.249,0.0522,0.3125,-4.1199,60.2112,9.4299,2024-02-12 15:44:33.861,4.0
-1.2144,-0.0146,0.4106,11.0321,26.6724,15.6097,2024-02-12 15:44:33.894,4.0
-1.1138,-0.0432,0.3887,24.6582,-3.4103,13.298,2024-02-12 15:44:33.910,4.0
-0.9609,0.1619,0.2373,40.2374,-0.885,11.0779,2024-02-12 15:44:33.918,4.0
-1.0259,0.1851,-0.2046,33.4778,38.9099,11.261,2024-02-12 15:44:33.937,4.0
-1.3906,0.2473,-0.1516,19.2032,53.1616,27.9083,2024-02-12 15:44:33.961,4.0
-1.3923,0.4058,-0.5657,5.7144,30.2658,62.6984,2024-02-12 15:44:33.978,4.0
-1.1667,0.4492,-0.7666,-27.3056,-15.8005,70.4041,2024-02-12 15:44:33.986,4.0
-0.8406,-0.1167,-0.5427,-53.1693,-85.083,59.1431,2024-02-12 15:44:34.010,4.0
-0.5449,-0.374,-0.1445,-37.941,-111.6562,42.9611,2024-02-12 15:44:34.027,4.0
-0.3613,-0.3582,0.1084,-11.5051,-80.8945,15.0299,2024-02-12 15:44:34.051,4.0
-0.5498,-0.2527,0.0698,12.1002,-9.5673,-17.3874,2024-02-12 15:44:34.064,4.0
-0.8936,-0.1475,-0.2876,13.6032,45.8374,-41.3055,2024-02-12 15:44:34.080,4.0
-1.239,0.0186,-0.3062,-8.1558,42.6102,-48.8281,2024-02-12 15:44:34.104,4.0
-1.2524,0.1206,-0.1504,-26.4893,-31.1584,-47.1802,2024-02-12 15:44:34.120,4.0
-1.1377,0.2273,-0.1938,-44.3726,-96.283,-36.7966,2024-02-12 15:44:34.137,4.0
-0.7727,0.2234,-0.1335,-61.2946,-111.9919,-24.1241,2024-02-12 15:44:34.153,4.0
-0.3994,0.1531,-0.0044,-72.6013,-88.4247,-31.9519,2024-02-12 15:44:34.169,4.0
-0.3665,-0.0188,0.0139,-79.1931,-31.6696,-43.4799,2024-02-12 15:44:34.194,4.0
-0.4492,-0.1357,0.1287,-78.9948,26.3824,-44.9066,2024-02-12 15:44:34.210,4.0
-0.6375,-0.1707,0.072,-76.5533,55.5725,-45.2957,2024-02-12 15:44:34.229,4.0
-0.7832,-0.1584,0.0894,-75.2487,45.4178,-43.1595,2024-02-12 15:44:34.253,4.0
-0.8174,-0.1667,0.1455,-72.7997,17.9672,-35.6522,2024-02-12 15:44:34.261,4.0
-0.707,-0.1384,0.1677,-69.4275,-1.8463,-24.5056,2024-02-12 15:44:34.285,4.0
-0.5884,-0.1267,0.1599,-68.84,0.267,-15.4648,2024-02-12 15:44:34.301,4.0
-0.5356,-0.1099,0.1919,-70.2667,12.4817,-8.5678,2024-02-12 15:44:34.321,4.0
-0.5859,-0.1121,0.2993,-68.2144,30.9677,-1.5335,2024-02-12 15:44:34.337,4.0
-0.7009,-0.1377,0.2783,-60.1959,46.6461,6.2027,2024-02-12 15:44:34.353,4.0
-0.8176,-0.2002,0.2139,-54.451,42.4042,9.5749,2024-02-12 15:44:34.378,4.0
-0.9465,-0.2722,0.3311,-49.408,18.8065,8.3389,2024-02-12 15:44:34.393,4.0
-0.9045,-0.2896,0.1919,-37.0941,-6.8283,-2.7313,2024-02-12 15:44:34.409,4.0
-0.8,-0.2231,0.1372,-29.2053,-15.6937,-17.2806,2024-02-12 15:44:34.429,4.0
-0.7578,-0.2261,0.2268,-20.4086,-8.0261,-31.6544,2024-02-12 15:44:34.445,4.0
-0.7788,-0.3364,0.3613,-11.9476,6.9122,-34.8434,2024-02-12 15:44:34.469,4.0
-0.8594,-0.325,0.3472,1.1826,13.6261,-25.8789,2024-02-12 15:44:34.485,4.0
-0.8779,-0.3711,0.002,-2.037,26.0696,-18.7912,2024-02-12 15:44:34.502,4.0
-0.9951,-0.1794,-0.0063,-4.425,60.936,-47.4014,2024-02-12 15:44:34.522,4.0
-1.3506,-0.4006,-0.1763,6.9199,56.572,-73.2498,2024-02-12 15:44:34.538,4.0
-1.3464,-0.3435,-0.251,35.4614,6.0959,-60.6613,2024-02-12 15:44:34.562,4.0
-1.0886,-0.2131,-0.2903,31.8756,-43.457,-60.9283,2024-02-12 15:44:34.578,4.0
-0.9583,-0.1589,-0.2288,9.6054,-52.5589,-41.3284,2024-02-12 15:44:34.594,4.0
-0.7871,-0.1021,-0.1174,-1.9531,-30.6778,-13.3896,2024-02-12 15:44:34.619,4.0
-0.8289,0.1963,-0.2148,-5.4855,3.0136,7.4615,2024-02-12 15:44:34.627,4.0
-0.9712,0.3279,-0.3206,-20.3781,31.3416,23.4756,2024-02-12 15:44:34.652,4.0
-1.1501,0.1001,-0.2617,-28.1219,59.227,20.5994,2024-02-12 15:44:34.677,4.0
-1.3064,-0.1448,-0.1089,-24.1699,54.184,16.6397,2024-02-12 15:44:34.693,4.0
-1.261,-0.186,0.0376,-13.6261,-7.9346,31.6162,2024-02-12 15:44:34.710,4.0
-1.0122,-0.1912,-0.0464,-3.5782,-49.9649,44.3573,2024-02-12 15:44:34.727,4.0
-0.7478,-0.168,-0.1082,-0.1068,-54.8096,50.2701,2024-02-12 15:44:34.743,4.0
-0.5906,-0.0999,-0.0825,-0.8698,-24.5361,47.9736,2024-02-12 15:44:34.767,4.0
-0.5396,-0.01,-0.0071,-2.243,5.5771,43.5257,2024-02-12 15:44:34.784,4.0
-0.5913,0.0471,0.0071,-3.479,18.0283,39.6576,2024-02-12 15:44:34.792,4.0
-0.6489,0.0828,0.0125,-5.4398,10.582,36.3464,2024-02-12 15:44:34.833,4.0
-0.623,0.0898,0.0234,-6.0349,-5.5008,32.5089,2024-02-12 15:44:34.833,4.0
-0.5515,0.1057,-0.0007,-9.0256,-10.8871,26.4893,2024-02-12 15:44:34.850,4.0
-0.4695,0.1052,0.0112,-14.7705,-7.7667,18.0206,2024-02-12 15:44:34.873,4.0
-0.4072,0.0999,0.0684,-20.1645,1.6251,8.3694,2024-02-12 15:44:34.890,4.0
-0.4233,0.1201,0.1658,-25.1389,17.2729,-5.2567,2024-02-12 15:44:34.906,4.0
-0.605,0.1414,0.3069,-25.7568,25.9628,-15.4037,2024-02-12 15:44:34.930,4.0
-0.7544,0.1082,0.2881,-23.7656,19.4626,-18.5623,2024-02-12 15:44:34.946,4.0
-0.9121,0.0798,0.1582,-27.4658,-4.837,-13.8779,2024-02-12 15:44:34.970,4.0
-0.9004,0.1086,-0.1008,-36.6135,-27.3514,-5.2795,2024-02-12 15:44:34.986,4.0
-0.8049,0.0828,-0.197,-52.8717,-29.0298,-2.5177,2024-02-12 15:44:35.002,4.0
-0.7751,0.0403,0.0847,-61.3937,-8.1329,-9.1095,2024-02-12 15:44:35.010,4.0
-0.8813,-0.0579,0.3201,-58.2275,12.4664,-15.9912,2024-02-12 15:44:35.027,4.0
-1.021,-0.0859,0.3237,-38.5895,32.0053,-21.5378,2024-02-12 15:44:35.051,4.0
-1.1228,0.0793,0.033,-22.8043,45.4712,-19.371,2024-02-12 15:44:35.076,4.0
-1.2512,0.2197,-0.2351,-30.2811,48.584,-11.6348,2024-02-12 15:44:35.092,4.0
-1.5161,0.2656,-0.1536,-41.8243,42.45,1.8997,2024-02-12 15:44:35.108,4.0
-1.4795,0.3748,-0.4724,-49.5605,6.3553,32.4326,2024-02-12 15:44:35.125,4.0
-1.1455,0.1626,-0.4629,-71.785,-59.1431,38.063,2024-02-12 15:44:35.141,4.0
-0.7441,-0.137,-0.3391,-82.9849,-113.4109,35.2249,2024-02-12 15:44:35.158,4.0
-0.3074,-0.2822,-0.1799,-84.4116,-128.7842,28.2211,2024-02-12 15:44:35.182,4.0
-0.0908,-0.2856,0.1582,-71.3425,-67.7185,4.8294,2024-02-12 15:44:35.198,4.0
-0.3362,-0.1851,0.2205,-38.9938,71.1594,-23.7427,2024-02-12 15:44:35.214,4.0
-0.8452,-0.0173,-0.1143,-40.863,143.8904,-40.1001,2024-02-12 15:44:35.230,4.0
-1.4209,0.1599,-0.4014,-69.4885,159.0958,-47.3022,2024-02-12 15:44:35.254,4.0
-1.5696,-0.0085,-0.1899,-86.7996,31.7307,-49.1028,2024-02-12 15:44:35.270,4.0
-1.5046,-0.0872,-0.105,-73.2803,-92.9031,-35.2097,2024-02-12 15:44:35.286,4.0
-0.9065,-0.0049,-0.1536,-78.6896,-133.9111,-22.3923,2024-02-12 15:44:35.302,4.0
-0.4924,-0.0139,-0.0881,-89.7217,-114.6011,-22.9645,2024-02-12 15:44:35.327,4.0
-0.2549,-0.0598,-0.063,-95.4208,-64.209,-35.2554,2024-02-12 15:44:35.343,4.0
-0.3242,-0.1067,-0.0823,-101.9821,-8.1787,-45.4865,2024-02-12 15:44:35.362,4.0
-0.573,-0.1497,0.0005,-106.9641,17.5781,-51.1017,2024-02-12 15:44:35.378,4.0
-0.7861,-0.1919,0.1191,-103.8284,7.0572,-48.027,2024-02-12 15:44:35.402,4.0
-0.8391,-0.229,0.0918,-98.4573,-11.2839,-34.9197,2024-02-12 15:44:35.425,4.0
-0.7144,-0.23,0.1042,-96.756,-11.0321,-20.8969,2024-02-12 15:44:35.433,4.0
-0.5869,-0.23,0.2439,-93.811,6.7902,-12.2452,2024-02-12 15:44:35.449,4.0
-0.5369,-0.1399,0.2671,-87.5626,28.038,-5.0049,2024-02-12 15:44:35.481,4.0
-0.5571,-0.1548,0.3274,-83.046,42.9382,-7.9803,2024-02-12 15:44:35.489,4.0
-0.7461,-0.2534,0.4495,-69.7403,46.7987,-14.1602,2024-02-12 15:44:35.513,4.0
-0.9434,-0.3628,0.4243,-52.1774,38.1088,-17.3721,2024-02-12 15:44:35.530,4.0
-1.0969,-0.4365,0.3235,-33.0811,27.0157,-13.1226,2024-02-12 15:44:35.537,4.0
-1.1338,-0.4102,0.0706,-14.7552,17.9977,-1.152,2024-02-12 15:44:35.562,4.0
-1.1455,-0.4766,-0.2383,-9.8953,27.6108,-6.5689,2024-02-12 15:44:35.579,4.0
-1.3926,-0.0669,-0.1929,-2.7466,39.0015,-33.4778,2024-02-12 15:44:35.603,4.0
-1.6145,-0.1819,-0.2751,16.8304,-5.1651,-7.7667,2024-02-12 15:44:35.627,4.0
-1.0986,-0.2478,-0.4187,15.8844,-69.6869,19.5847,2024-02-12 15:44:35.636,4.0
-0.6228,-0.0713,-0.2383,1.3733,-92.041,26.6571,2024-02-12 15:44:35.652,4.0
-0.4673,0.0083,-0.0557,0.1831,-41.9998,33.8593,2024-02-12 15:44:35.676,4.0
-0.5239,0.1755,-0.1021,2.7924,38.4979,49.9649,2024-02-12 15:44:35.693,4.0
-0.7153,0.2295,-0.1772,0.3128,112.3657,40.947,2024-02-12 15:44:35.710,4.0
-1.2527,0.0593,-0.2568,-8.5678,99.4339,28.5339,2024-02-12 15:44:35.726,4.0
-1.4834,-0.2087,-0.1143,-12.4512,28.1143,52.4597,2024-02-12 15:44:35.750,4.0
-1.2505,-0.366,0.0356,-2.1133,-28.9001,75.9506,2024-02-12 15:44:35.766,4.0
-0.9211,-0.3352,0.0632,13.6261,-59.9365,88.8901,2024-02-12 15:44:35.782,4.0
-0.5371,-0.1533,-0.0466,26.1307,-57.8613,83.2901,2024-02-12 15:44:35.807,4.0
-0.2822,0.0867,-0.1797,28.038,-29.8004,69.6259,2024-02-12 15:44:35.815,4.0
-0.2407,0.2542,-0.1101,21.637,8.255,53.154,2024-02-12 15:44:35.839,4.0
-0.3835,0.2764,0.0181,20.8206,33.9279,38.269,2024-02-12 15:44:35.855,4.0
-0.5918,0.2812,0.0786,26.0468,45.5017,29.3121,2024-02-12 15:44:35.874,4.0
-0.853,0.2437,0.0776,29.7241,41.4505,29.9835,2024-02-12 15:44:35.890,4.0
-0.9143,0.1008,0.0366,30.6015,16.7923,34.2636,2024-02-12 15:44:35.906,4.0
-0.7759,0.0017,0.0674,31.5247,-19.0811,30.5252,2024-02-12 15:44:35.930,4.0
-0.5625,0.0464,0.1763,31.7612,-36.3159,18.5242,2024-02-12 15:44:35.946,4.0
-0.4626,0.0923,0.2983,33.4167,-8.4381,8.522,2024-02-12 15:44:35.970,4.0
-0.5283,0.1357,0.2764,35.6674,31.2119,1.0834,2024-02-12 15:44:35.978,4.0
-0.7566,0.1296,0.2703,40.7944,55.6946,-3.1509,2024-02-12 15:44:36.002,4.0
-0.917,0.1643,0.1399,46.5317,55.6564,-8.9264,2024-02-12 15:44:36.021,4.0
-1.0466,0.1389,-0.2549,45.1813,50.3159,-14.8849,2024-02-12 15:44:36.037,4.0
-1.436,0.3467,-0.5039,37.1475,61.2335,-7.9422,2024-02-12 15:44:36.053,4.0
-1.5378,0.6746,-0.5288,11.1542,60.6384,15.8691,2024-02-12 15:44:36.077,4.0
-1.4661,0.5168,-0.3806,-18.4402,43.2053,28.6789,2024-02-12 15:44:36.102,4.0
-1.0889,0.2302,-0.0879,-32.4402,6.8436,22.7356,2024-02-12 15:44:36.110,4.0
-0.8237,0.2668,-0.3342,-17.0364,-27.8397,-6.7749,2024-02-12 15:44:36.126,4.0
-0.7754,0.26,-0.6548,-24.0631,-34.5535,-29.8157,2024-02-12 15:44:36.151,4.0
-0.8623,0.2043,-0.6614,-36.1099,-33.7372,-43.3044,2024-02-12 15:44:36.168,4.0
-0.938,0.1138,-0.6118,-49.8047,-19.783,-53.2837,2024-02-12 15:44:36.184,4.0
-1.0347,0.0615,-0.4158,-63.385,0.4272,-61.1954,2024-02-12 15:44:36.216,4.0
-1.0662,-0.0249,-0.3472,-69.1986,1.2741,-66.7114,2024-02-12 15:44:36.224,4.0
-1.043,-0.0879,-0.3655,-75.119,-29.9454,-71.8918,2024-02-12 15:44:36.240,4.0
-0.9238,-0.1223,-0.3792,-83.046,-59.3338,-75.6683,2024-02-12 15:44:36.256,4.0
-0.7839,-0.1372,-0.2847,-84.6863,-67.9169,-81.749,2024-02-12 15:44:36.272,4.0
-0.761,-0.1338,-0.1438,-83.8165,-61.9278,-87.3642,2024-02-12 15:44:36.292,4.0
-0.7676,-0.1436,-0.0764,-83.6716,-56.015,-85.7773,2024-02-12 15:44:36.308,4.0
-0.7625,-0.127,-0.1072,-83.5571,-57.0374,-79.3457,2024-02-12 15:44:36.332,4.0
-0.6782,-0.1228,-0.2083,-87.5015,-66.7877,-71.6095,2024-02-12 15:44:36.348,4.0
-0.5527,-0.1113,-0.1724,-93.956,-77.2018,-65.2313,2024-02-12 15:44:36.364,4.0
-0.479,-0.1152,-0.0503,-97.3434,-79.0939,-62.4466,2024-02-12 15:44:36.389,4.0
-0.4607,-0.0964,0.0862,-94.574,-69.313,-58.5785,2024-02-12 15:44:36.400,4.0
-0.4451,-0.1116,0.1306,-89.9506,-51.4526,-50.087,2024-02-12 15:44:36.416,4.0
-0.4263,-0.2244,0.1616,-87.5092,-27.7252,-45.3568,2024-02-12 15:44:36.440,4.0
-0.3477,-0.3542,0.1848,-82.8934,-2.1362,-45.7916,2024-02-12 15:44:36.456,4.0
-0.3704,-0.4751,0.1963,-73.6923,13.5651,-53.3829,2024-02-12 15:44:36.472,4.0
-0.5322,-0.4631,0.1562,-60.0967,21.2326,-56.4194,2024-02-12 15:44:36.492,4.0
-0.697,-0.3623,0.0488,-54.2068,21.5225,-46.402,2024-02-12 15:44:36.516,4.0
-0.7595,-0.3489,0.0488,-54.1687,14.6561,-28.6407,2024-02-12 15:44:36.532,4.0
-0.707,-0.3806,0.0625,-51.7044,8.2245,-13.7558,2024-02-12 15:44:36.541,4.0
-0.7424,-0.3516,0.147,-51.5823,5.5618,-6.6223,2024-02-12 15:44:36.565,4.0
-0.9055,-0.2939,0.282,-41.9769,4.4632,-1.77,2024-02-12 15:44:36.581,4.0
-0.9875,-0.2302,0.3215,-40.8554,-1.0605,9.1782,2024-02-12 15:44:36.597,4.0
-0.8875,-0.2385,0.0237,-12.0468,11.3297,9.4147,2024-02-12 15:44:36.613,4.0
-1.3479,-0.8235,0.1414,-38.8565,23.201,-64.6439,2024-02-12 15:44:36.637,4.0
-2.2183,-0.7988,0.3416,39.3219,51.6891,-37.178,2024-02-12 15:44:36.658,4.0
-1.7571,-0.4082,-0.572,50.9033,12.5656,37.3306,2024-02-12 15:44:36.666,4.0
-0.9541,-0.3652,-0.3455,16.8304,-35.6827,55.6946,2024-02-12 15:44:36.690,4.0
-0.6558,-0.3169,-0.0896,27.0309,-39.856,53.4134,2024-02-12 15:44:36.707,4.0
-0.5732,-0.2905,-0.1687,35.6598,-27.0309,54.924,2024-02-12 15:44:36.723,4.0
-0.6821,-0.2515,-0.1494,36.7889,22.2244,47.9584,2024-02-12 15:44:36.747,4.0
-0.9661,-0.2275,0.0464,40.3366,61.1115,41.9006,2024-02-12 15:44:36.763,4.0
-1.2239,-0.2119,0.1926,59.1888,58.075,59.5474,2024-02-12 15:44:36.789,4.0
-1.1299,-0.1343,0.0703,72.7386,21.0876,87.0667,2024-02-12 15:44:36.797,4.0
-0.7292,-0.0652,-0.1028,72.2427,-31.456,96.7636,2024-02-12 15:44:36.821,4.0
-0.4182,-0.03,-0.1155,67.9626,-50.3464,87.7151,2024-02-12 15:44:36.837,4.0
-0.5107,-0.0405,-0.0737,64.7888,-35.2859,79.3152,2024-02-12 15:44:36.853,4.0
-0.219,-0.0491,-0.0278,65.4449,-5.1117,68.6874,2024-02-12 15:44:36.895,4.0
-0.2939,-0.0708,0.042,67.6498,24.8642,62.3474,2024-02-12 15:44:36.903,4.0
-0.4194,-0.0503,0.0503,70.8237,56.2668,63.3698,2024-02-12 15:44:36.913,4.0
-0.4753,-0.0251,0.0249,69.0002,74.9435,58.609,2024-02-12 15:44:36.929,4.0
-0.5479,-0.0244,-0.0344,62.9807,64.3463,47.1725,2024-02-12 15:44:36.953,4.0
-0.6335,0.0261,0.0337,58.0597,40.4053,38.208,2024-02-12 15:44:36.969,4.0
-0.6831,0.0706,0.0186,57.6935,13.3209,31.517,2024-02-12 15:44:36.986,4.0
-0.7454,0.1941,0.0522,56.572,-6.5689,30.7159,2024-02-12 15:44:37.005,4.0
-0.6812,0.2915,-0.0125,52.2156,2.388,29.4724,2024-02-12 15:44:37.022,4.0
-0.7422,0.3677,-0.0583,35.1257,27.7863,28.8849,2024-02-12 15:44:37.038,4.0
-0.8516,0.324,0.0623,16.4719,31.0287,26.2985,2024-02-12 15:44:37.055,4.0
-0.9314,0.1775,0.3281,6.0501,19.2566,23.9563,2024-02-12 15:44:37.079,4.0
-0.8892,0.1233,0.0806,-1.2665,19.0506,20.3705,2024-02-12 15:44:37.095,4.0
-0.761,-0.1355,-0.4692,-30.1819,47.7142,-6.7368,2024-02-12 15:44:37.111,4.0
-1.7466,0.5205,-0.0461,-7.4081,117.1799,2.9068,2024-02-12 15:44:37.127,4.0
-1.5696,0.282,-0.8953,-39.6957,91.9571,-7.782,2024-02-12 15:44:37.151,4.0
-1.4807,-0.0129,-0.3767,-45.4483,-12.8021,-39.6729,2024-02-12 15:44:37.168,4.0
-1.0852,-0.1255,-0.2275,-31.3263,-96.283,-54.5425,2024-02-12 15:44:37.184,4.0
-0.8232,-0.063,-0.2112,-29.1748,-106.3538,-70.0531,2024-02-12 15:44:37.209,4.0
-0.6667,0.0161,-0.4194,-42.2211,-73.7991,-78.3615,2024-02-12 15:44:37.217,4.0
-0.6826,0.043,-0.3518,-61.47,-29.2664,-79.2084,2024-02-12 15:44:37.241,4.0
-0.802,-0.042,-0.1782,-78.3539,-14.6713,-81.5277,2024-02-12 15:44:37.257,4.0
-0.9163,-0.1226,-0.033,-83.1528,-37.3917,-81.2378,2024-02-12 15:44:37.273,4.0
-0.9099,-0.1956,0.0344,-75.1038,-62.7899,-66.658,2024-02-12 15:44:37.297,4.0
-0.6345,-0.1565,-0.021,-66.2308,-73.4482,-54.4128,2024-02-12 15:44:37.313,4.0
-0.3828,-0.106,-0.0046,-62.4084,-68.1076,-59.3185,2024-02-12 15:44:37.329,4.0
-0.4355,-0.0981,-0.0254,-57.1671,-46.8292,-65.033,2024-02-12 15:44:37.353,4.0
-0.2966,-0.1357,-0.1333,-58.8455,-24.4217,-67.2531,2024-02-12 15:44:37.369,4.0
-0.3386,-0.2339,-0.1277,-58.9066,-2.7237,-67.8482,2024-02-12 15:44:37.385,4.0
-0.4497,-0.2063,-0.0447,-51.8951,-1.6174,-58.0215,2024-02-12 15:44:37.401,4.0
-0.5044,-0.3599,0.1074,-43.0984,-11.9171,-50.7278,2024-02-12 15:44:37.421,4.0
-0.4783,-0.3806,0.2761,-34.2484,-19.8898,-41.8701,2024-02-12 15:44:37.437,4.0
-0.4326,-0.4307,0.3457,-29.4266,-11.6043,-28.3432,2024-02-12 15:44:37.462,4.0
-0.4761,-0.4575,0.3804,-34.9579,11.6882,-19.783,2024-02-12 15:44:37.470,4.0
-0.6619,-0.1252,0.5149,-39.9551,39.7568,-9.1171,2024-02-12 15:44:37.494,4.0
-0.8967,-0.155,0.4153,-40.2451,63.179,-4.0588,2024-02-12 15:44:37.511,4.0
-1.0432,-0.2598,0.1572,-36.2701,65.6128,-3.9444,2024-02-12 15:44:37.529,4.0
-1.4414,-0.3479,-0.0112,-34.5993,53.978,-44.7006,2024-02-12 15:44:37.545,4.0
-2.3069,-0.6482,0.635,6.1111,46.0281,-63.4689,2024-02-12 15:44:37.570,4.0
-2.6309,-0.6196,0.2019,39.032,10.0937,-26.2604,2024-02-12 15:44:37.586,4.0
-1.7683,-0.6946,-0.0842,49.2401,-5.2185,58.1055,2024-02-12 15:44:37.602,4.0
-1.1819,-0.3025,-0.4734,26.5503,-14.2365,88.9816,2024-02-12 15:44:37.618,4.0
-0.679,-0.4285,-0.5056,18.1656,17.9596,79.6585,2024-02-12 15:44:37.638,4.0
-0.6292,-0.4165,-0.5046,17.5171,48.172,59.3109,2024-02-12 15:44:37.654,4.0
-0.7402,-0.2642,-0.217,23.7579,42.3508,48.6832,2024-02-12 15:44:37.670,4.0
-0.7817,-0.2683,-0.0901,40.4587,15.3656,46.936,2024-02-12 15:44:37.687,4.0
-0.7959,-0.2759,0.009,61.2564,-15.5869,51.3687,2024-02-12 15:44:37.711,4.0
-0.7178,-0.2847,0.0249,73.6313,-43.1824,58.5098,2024-02-12 15:44:37.730,4.0
-0.5879,-0.1953,-0.0027,79.4525,-63.6826,62.8204,2024-02-12 15:44:37.746,4.0
-0.3022,0.0381,-0.085,68.8171,-69.809,61.2411,2024-02-12 15:44:37.762,4.0
0.0032,0.2795,-0.2168,55.5954,-57.5943,56.3202,2024-02-12 15:44:37.786,4.0
0.0186,0.373,-0.1646,39.0625,-24.9023,46.5775,2024-02-12 15:44:37.794,4.0
0.0137,0.2983,-0.0889,28.389,10.5591,40.8249,2024-02-12 15:44:37.830,4.0
-0.1067,0.1924,-0.0078,30.7007,45.4941,32.959,2024-02-12 15:44:37.846,4.0
-0.4797,0.0937,0.0125,34.9197,88.9206,32.8064,2024-02-12 15:44:37.862,4.0
-0.6895,-0.0261,-0.0664,25.7874,118.515,34.7214,2024-02-12 15:44:37.870,4.0
-0.7595,0.0076,-0.1128,8.3008,114.5096,26.7868,2024-02-12 15:44:37.895,4.0
-0.9189,0.2178,0.0715,-5.6992,99.0372,20.5536,2024-02-12 15:44:37.911,4.0
-1.2185,0.4314,0.2925,-10.9329,83.252,29.9988,2024-02-12 15:44:37.928,4.0
-1.2539,0.4111,0.2517,-8.5144,49.3393,40.4892,2024-02-12 15:44:37.943,4.0
-1.0896,0.2246,0.1235,-4.509,12.8174,37.8036,2024-02-12 15:44:37.960,4.0
-0.9753,0.095,0.2808,8.9188,-18.2571,28.2822,2024-02-12 15:44:37.984,4.0
-0.8374,-0.0664,-0.2478,1.6556,-1.1063,3.5172,2024-02-12 15:44:38.000,4.0
-2.0032,0.5374,-0.4221,6.012,85.1898,6.1646,2024-02-12 15:44:38.016,4.0
-1.4521,0.3381,-0.8718,-18.3334,43.3502,-16.0675,2024-02-12 15:44:38.041,4.0
-1.7114,-0.041,-0.3618,-21.1792,-31.9214,-26.5045,2024-02-12 15:44:38.049,4.0
-0.9897,-0.1782,-0.4202,-20.4239,-91.3925,-34.668,2024-02-12 15:44:38.065,4.0
-0.626,-0.2644,-0.2949,-26.7715,-96.3593,-58.0215,2024-02-12 15:44:38.090,4.0
-0.6135,-0.1914,-0.3225,-30.6778,-46.3562,-73.7381,2024-02-12 15:44:38.107,4.0
-0.7041,-0.0881,-0.3455,-35.7513,4.3793,-77.1866,2024-02-12 15:44:38.123,4.0
-0.8162,-0.0376,-0.325,-48.1567,22.3236,-81.9855,2024-02-12 15:44:38.151,4.0
-0.9556,-0.137,-0.1709,-55.069,-4.1962,-88.8596,2024-02-12 15:44:38.160,4.0
-1.0459,-0.2266,0.0261,-49.4385,-50.766,-74.7757,2024-02-12 15:44:38.177,4.0
-0.7366,-0.3132,-0.0022,-37.5366,-79.7424,-52.2842,2024-02-12 15:44:38.201,4.0
-0.3408,-0.2524,-0.0486,-29.9606,-87.9364,-46.8597,2024-02-12 15:44:38.217,4.0
-0.1133,-0.1467,-0.0649,-26.5732,-88.7527,-52.8183,2024-02-12 15:44:38.233,4.0
0.1917,-0.0942,-0.1443,-30.1208,-61.554,-60.6461,2024-02-12 15:44:38.247,4.0
-0.1111,-0.072,-0.147,-39.6423,-33.165,-56.366,2024-02-12 15:44:38.272,4.0
-0.2502,-0.0659,-0.1191,-48.4238,-2.4338,-52.1698,2024-02-12 15:44:38.296,4.0
-0.4126,-0.0957,-0.0649,-51.4603,3.1815,-45.517,2024-02-12 15:44:38.304,4.0
-0.5308,-0.1169,-0.0208,-49.6445,-5.5466,-35.1257,2024-02-12 15:44:38.328,4.0
-0.5244,-0.1641,0.0937,-49.5987,-8.3008,-25.856,2024-02-12 15:44:38.347,4.0
-0.4988,-0.2974,0.2688,-48.8815,11.5967,-22.8424,2024-02-12 15:44:38.363,4.0
-0.574,-0.5417,0.3674,-44.7006,51.6357,-25.6271,2024-02-12 15:44:38.379,4.0
-0.9868,-0.4683,0.4233,-30.9372,76.1795,-29.5792,2024-02-12 15:44:38.403,4.0
-1.4053,-0.2678,0.2605,-30.4031,63.6978,-21.7743,2024-02-12 15:44:38.419,4.0
-1.3157,-0.2908,-0.0815,-37.8647,13.9008,-4.5471,2024-02-12 15:44:38.435,4.0
-1.303,-0.7014,0.0071,-38.1088,-8.255,-39.5279,2024-02-12 15:44:38.452,4.0
-1.876,-0.7891,0.6162,19.8288,-1.4038,-41.0538,2024-02-12 15:44:38.468,4.0
-2.0276,-0.6465,-0.0508,52.0248,7.7744,5.8212,2024-02-12 15:44:38.493,4.0
-1.2109,-0.5125,-0.1716,40.0772,13.4735,59.2422,2024-02-12 15:44:38.509,4.0
-0.96,-0.3452,-0.3342,25.4211,27.5955,58.1589,2024-02-12 15:44:38.544,4.0
-0.7791,-0.4399,-0.3962,29.8004,29.541,56.6788,2024-02-12 15:44:38.544,4.0
-0.7151,-0.4136,-0.4812,35.8887,21.2173,49.5758,2024-02-12 15:44:38.560,4.0
-0.7981,-0.2854,-0.1533,37.3688,11.3297,42.0303,2024-02-12 15:44:38.586,4.0
-0.8235,-0.2842,-0.0054,56.4041,8.5831,46.8292,2024-02-12 15:44:38.602,4.0
-0.7937,-0.188,-0.094,69.87,-5.0812,58.1055,2024-02-12 15:44:38.618,4.0
-0.7095,-0.1016,-0.1238,72.5327,-25.1465,67.8024,2024-02-12 15:44:38.643,4.0
-0.6003,0.0122,-0.1265,68.428,-38.1546,72.6395,2024-02-12 15:44:38.652,4.0
-0.3525,0.1538,-0.1821,56.8466,-39.4745,71.312,2024-02-12 15:44:38.677,4.0
-0.2068,0.2271,-0.1646,43.4723,-23.6816,59.7763,2024-02-12 15:44:38.693,4.0
-0.1985,0.1714,-0.1379,32.753,-0.9155,45.8755,2024-02-12 15:44:38.710,4.0
-0.3135,0.0332,-0.1116,27.9312,22.1176,38.0554,2024-02-12 15:44:38.727,4.0
-0.4561,-0.0437,-0.0923,27.0462,35.7285,34.3857,2024-02-12 15:44:38.743,4.0
-0.6409,-0.0398,-0.0305,27.7786,41.8854,33.4396,2024-02-12 15:44:38.768,4.0
-0.6968,-0.0142,-0.0056,28.8086,30.5939,35.3851,2024-02-12 15:44:38.776,4.0
-0.6096,0.0193,-0.0007,25.2075,11.5356,30.0369,2024-02-12 15:44:38.801,4.0
-0.5896,0.0349,0.0554,20.8664,27.9465,24.6124,2024-02-12 15:44:38.826,4.0
-0.6929,0.074,0.092,15.1596,61.7523,19.2642,2024-02-12 15:44:38.842,4.0
-0.9243,0.2224,0.0654,9.0408,83.0231,15.0146,2024-02-12 15:44:38.859,4.0
-1.2939,0.2842,-0.0168,4.7073,86.4487,15.77,2024-02-12 15:44:38.885,4.0
-1.439,0.1272,0.0613,0.3967,49.614,15.6479,2024-02-12 15:44:38.893,4.0
-1.4458,0.0935,0.176,3.0441,10.7193,16.8228,2024-02-12 15:44:38.909,4.0
-1.2786,0.1113,-0.1482,-7.2861,-4.1809,5.394,2024-02-12 15:44:38.918,4.0
-1.7549,0.5789,-0.207,-22.1481,44.96,13.1073,2024-02-12 15:44:38.942,4.0
-1.2876,0.2258,-0.5315,-38.1546,16.5634,-20.2484,2024-02-12 15:44:38.960,4.0
-1.1055,0.0056,-0.3386,-40.5807,-9.6664,-41.3437,2024-02-12 15:44:38.984,4.0
-0.9458,0.0071,-0.4556,-36.5524,-32.8522,-53.9932,2024-02-12 15:44:39.000,4.0
-0.7224,0.0247,-0.5872,-45.4178,-45.4559,-58.2352,2024-02-12 15:44:39.009,4.0
-0.6855,-0.0242,-0.3867,-50.293,-47.2107,-63.0646,2024-02-12 15:44:39.033,4.0
-0.6633,-0.0608,-0.2961,-62.1719,-39.444,-63.9191,2024-02-12 15:44:39.049,4.0
-0.6338,-0.0459,-0.1973,-69.2673,-40.3214,-68.0008,2024-02-12 15:44:39.073,4.0
-0.6062,-0.1018,-0.2322,-75.4013,-42.5949,-72.0673,2024-02-12 15:44:39.089,4.0
-0.624,-0.1689,-0.1519,-81.9397,-41.5192,-72.998,2024-02-12 15:44:39.105,4.0
-0.6396,-0.2317,0.0117,-74.7604,-45.8832,-67.9626,2024-02-12 15:44:39.122,4.0
-0.5527,-0.3188,0.0522,-64.3311,-53.9169,-62.149,2024-02-12 15:44:39.146,4.0
-0.4583,-0.3391,0.0142,-53.2455,-61.2564,-59.761,2024-02-12 15:44:39.162,4.0
-0.4075,-0.2764,-0.0244,-39.5279,-64.0335,-53.1464,2024-02-12 15:44:39.178,4.0
-0.3635,-0.2214,-0.0872,-33.4854,-59.639,-50.3616,2024-02-12 15:44:39.203,4.0
-0.4028,-0.1982,-0.0605,-30.159,-51.6663,-47.8668,2024-02-12 15:44:39.211,4.0
-0.4863,-0.2307,0.0159,-24.3225,-47.0276,-42.305,2024-02-12 15:44:39.235,4.0
-0.53,-0.2622,0.1116,-18.3334,-49.3469,-39.4135,2024-02-12 15:44:39.251,4.0
-0.5376,-0.3076,0.22,-14.183,-49.0799,-36.4838,2024-02-12 15:44:39.271,4.0
-0.4478,-0.3767,0.311,-12.9318,-29.4113,-33.4244,2024-02-12 15:44:39.287,4.0
-0.4312,-0.4675,0.283,-17.8375,19.6381,-39.5584,2024-02-12 15:44:39.303,4.0
-0.8235,-0.3733,0.3596,-21.286,72.0749,-44.487,2024-02-12 15:44:39.328,4.0
-1.2183,-0.0735,0.3022,-26.5198,83.3969,-37.1246,2024-02-12 15:44:39.344,4.0
-1.533,-0.1035,0.2454,-39.4669,51.6052,-18.4708,2024-02-12 15:44:39.361,4.0
-1.5366,-0.2361,0.0291,-47.3251,16.9144,9.5673,2024-02-12 15:44:39.379,4.0
-1.4443,-0.6536,0.4231,-48.0728,8.6899,-27.3895,2024-02-12 15:44:39.395,4.0
-1.6746,-0.679,0.2646,-2.6016,19.2947,-15.4724,2024-02-12 15:44:39.411,4.0
-1.6355,-0.625,0.1265,3.3875,18.6234,23.468,2024-02-12 15:44:39.435,4.0
-0.9556,-0.4365,-0.0398,7.5073,10.0555,40.5197,2024-02-12 15:44:39.443,4.0
-0.9932,-0.4441,-0.4243,-3.685,23.7808,50.3769,2024-02-12 15:44:39.471,4.0
-0.9395,-0.511,-0.374,-5.5771,27.2903,65.5746,2024-02-12 15:44:39.487,4.0
-0.803,-0.3911,-0.2854,9.5901,-3.3493,70.4193,2024-02-12 15:44:39.511,4.0
-0.708,-0.2422,-0.2158,18.013,-27.092,67.7795,2024-02-12 15:44:39.516,4.0
-0.6086,-0.1804,-0.1208,24.5285,-42.5949,66.0782,2024-02-12 15:44:39.540,4.0
-0.5022,-0.167,-0.0305,36.7432,-47.5769,65.7272,2024-02-12 15:44:39.557,4.0
-0.4419,-0.1648,-0.0151,48.0499,-46.608,65.2924,2024-02-12 15:44:39.579,4.0
-0.4102,-0.0923,-0.0354,51.9714,-36.8805,63.8504,2024-02-12 15:44:39.596,4.0
-0.3645,0.0205,-0.0781,48.912,-16.0904,59.6924,2024-02-12 15:44:39.612,4.0
-0.354,0.1565,-0.0581,41.0767,-2.9297,51.796,2024-02-12 15:44:39.629,4.0
-0.342,0.1345,-0.0828,35.347,6.5613,43.0908,2024-02-12 15:44:39.645,4.0
-0.3757,0.0625,-0.0737,30.6244,17.4332,39.65,2024-02-12 15:44:39.663,4.0
-0.4451,0.0081,0.0012,30.7007,32.4554,35.3851,2024-02-12 15:44:39.688,4.0
-0.6602,0.0269,0.0388,35.2554,40.5121,36.1328,2024-02-12 15:44:39.704,4.0
-0.6982,0.0432,-0.0637,31.5857,34.1492,40.8249,2024-02-12 15:44:39.720,4.0
-0.5977,0.1462,-0.0928,19.1803,15.6174,39.7644,2024-02-12 15:44:39.744,4.0
-0.4897,0.2617,0.0349,6.6452,21.8658,35.8658,2024-02-12 15:44:39.760,4.0
-0.5225,0.3562,0.1792,-0.1144,52.0248,26.8326,2024-02-12 15:44:39.784,4.0
-0.7717,0.3999,0.2126,-5.0049,91.8884,14.8544,2024-02-12 15:44:39.801,4.0
-1.2886,0.0845,0.1787,-11.1008,117.4393,5.2109,2024-02-12 15:44:39.818,4.0
-1.5476,-0.0667,0.2749,-4.3488,75.1038,4.4479,2024-02-12 15:44:39.842,4.0
-1.5427,-0.1555,-0.0955,-3.9215,10.6354,-4.5013,2024-02-12 15:44:39.858,4.0
-2.1902,0.4006,0.0183,-5.0507,38.2309,27.0996,2024-02-12 15:44:39.874,4.0
-1.3889,0.3645,-0.4075,-25.6348,20.0806,15.9531,2024-02-12 15:44:39.890,4.0
-1.2234,0.2349,-0.2195,-34.4849,22.7509,-18.4708,2024-02-12 15:44:39.907,4.0
-1.1736,0.0247,-0.2817,-19.3558,-11.6653,-44.6243,2024-02-12 15:44:39.931,4.0
-0.8477,0.0071,-0.6882,-23.8266,-44.5328,-54.9545,2024-02-12 15:44:39.947,4.0
-0.8093,0.0728,-0.491,-27.1606,-55.542,-57.2128,2024-02-12 15:44:39.971,4.0
-0.7979,-0.0168,-0.2817,-27.8778,-44.2276,-49.4232,2024-02-12 15:44:39.982,4.0
-0.6606,-0.1018,-0.2288,-33.3405,-45.3873,-49.53,2024-02-12 15:44:39.998,4.0
-0.5725,-0.0774,-0.2114,-42.5415,-58.7082,-58.3191,2024-02-12 15:44:40.015,4.0
-0.5652,-0.0789,-0.1804,-52.7725,-64.7202,-68.2373,2024-02-12 15:44:40.039,4.0
-0.5972,-0.1045,-0.1365,-58.7158,-64.0869,-69.2215,2024-02-12 15:44:40.055,4.0
-0.4675,-0.2124,-0.0764,-54.5807,-66.7038,-59.4711,2024-02-12 15:44:40.072,4.0
-0.3091,-0.2986,0.0032,-46.814,-60.1578,-56.6101,2024-02-12 15:44:40.095,4.0
-0.2603,-0.3103,0.0298,-38.4064,-42.9153,-62.3779,2024-02-12 15:44:40.111,4.0
-0.3213,-0.2625,0.0391,-29.3579,-18.6157,-66.6275,2024-02-12 15:44:40.127,4.0
-0.4243,-0.1494,0.0183,-23.0026,-7.6752,-64.2242,2024-02-12 15:44:40.144,4.0
-0.533,-0.0896,-0.0078,-20.9274,-5.7373,-59.4635,2024-02-12 15:44:40.160,4.0
-0.647,-0.1179,0.051,-19.6686,-9.2697,-52.0096,2024-02-12 15:44:40.179,4.0
-0.7546,-0.2178,0.1978,-14.4501,-16.6397,-36.6821,2024-02-12 15:44:40.204,4.0
-0.6711,-0.3333,0.1885,-9.14,-11.0626,-23.2697,2024-02-12 15:44:40.220,4.0
-0.6179,-0.4146,0.1677,-11.9095,20.6528,-22.6212,2024-02-12 15:44:40.244,4.0
-0.771,-0.4241,0.2876,-18.8293,55.3589,-30.571,2024-02-12 15:44:40.282,4.0
-1.0645,-0.2852,0.5002,-23.1323,58.7387,-29.7318,2024-02-12 15:44:40.282,4.0
-1.2654,-0.3325,0.4856,-18.6386,36.6821,-20.6375,2024-02-12 15:44:40.290,4.0
-1.074,-0.3809,0.0784,-40.2374,12.1384,3.54,2024-02-12 15:44:40.315,4.0
-0.957,-0.3403,0.0928,-55.7022,9.4452,4.2572,2024-02-12 15:44:40.331,4.0
-1.0476,-0.4702,0.01,-46.0968,39.0244,-30.4947,2024-02-12 15:44:40.353,4.0
-1.7622,-0.397,0.3481,-15.9607,62.8891,-58.5632,2024-02-12 15:44:40.361,4.0
-2.2051,-0.5547,-0.0972,13.3743,46.1426,8.7814,2024-02-12 15:44:40.378,4.0
-1.3323,-0.4131,-0.3113,-1.3504,13.7711,59.3185,2024-02-12 15:44:40.402,4.0
-0.9016,-0.248,-0.3406,-13.0157,-27.0844,62.4619,2024-02-12 15:44:40.418,4.0
-0.76,-0.312,-0.2891,-6.1417,-24.6964,75.2716,2024-02-12 15:44:40.434,4.0
-0.5334,-0.3413,-0.3782,8.0719,-1.4496,67.3676,2024-02-12 15:44:40.451,4.0
-0.6526,-0.2537,-0.3538,13.176,12.0621,53.688,2024-02-12 15:44:40.476,4.0
-0.8059,-0.2024,-0.1726,19.7601,11.4288,53.2684,2024-02-12 15:44:40.484,4.0
-0.8396,-0.1758,-0.0474,35.6445,-5.9586,61.1496,2024-02-12 15:44:40.509,4.0
-0.7815,-0.0991,-0.0518,48.8281,-23.7045,69.1986,2024-02-12 15:44:40.525,4.0
-0.6096,0.0195,-0.1484,51.4526,-36.7813,75.1114,2024-02-12 15:44:40.558,4.0
-0.386,0.1418,-0.1523,43.9148,-39.2456,73.6542,2024-02-12 15:44:40.558,4.0
-0.2241,0.1777,-0.0908,37.0941,-23.5443,65.5594,2024-02-12 15:44:40.574,4.0
-0.2046,0.0757,-0.041,33.5083,9.5825,52.4826,2024-02-12 15:44:40.598,4.0
-0.3081,-0.0466,0.012,39.8178,46.608,41.0995,2024-02-12 15:44:40.614,4.0
-0.5432,-0.103,0.04,51.1322,79.3152,36.5524,2024-02-12 15:44:40.631,4.0
-0.7087,-0.1108,-0.0129,54.8553,86.7386,39.238,2024-02-12 15:44:40.647,4.0
-0.7441,-0.0557,-0.1018,49.6597,64.6133,42.4728,2024-02-12 15:44:40.672,4.0
-0.6245,0.1021,-0.1653,36.5906,40.2451,35.2859,2024-02-12 15:44:40.688,4.0
-0.6235,0.3533,-0.0625,22.4457,42.0761,29.7546,2024-02-12 15:44:40.712,4.0
-0.6602,0.541,0.0205,12.5198,53.4592,28.862,2024-02-12 15:44:40.728,4.0
-0.8176,0.6067,0.0298,3.8528,57.0831,31.0745,2024-02-12 15:44:40.769,4.0
-0.9248,0.3401,0.0601,-4.0588,47.1497,28.9307,2024-02-12 15:44:40.769,4.0
-0.9172,0.0627,0.4065,5.8136,20.7825,23.1476,2024-02-12 15:44:40.777,4.0
-0.7678,0.1255,0.042,17.9825,-2.8763,5.249,2024-02-12 15:44:40.793,4.0
-0.8931,0.1604,-0.5715,-0.0153,15.77,-35.6598,2024-02-12 15:44:40.812,4.0
-2.1255,0.4846,-0.731,-26.3977,80.8945,-9.3842,2024-02-12 15:44:40.829,4.0
-1.6753,-0.0361,-0.5352,-48.8358,-8.7128,-20.4849,2024-02-12 15:44:40.853,4.0
-1.3086,-0.0754,-0.4309,-40.4739,-62.5992,-30.8456,2024-02-12 15:44:40.869,4.0
-0.8076,-0.1682,-0.3718,-40.3595,-93.0023,-49.5224,2024-02-12 15:44:40.882,4.0
-0.5698,-0.2273,-0.2815,-40.0543,-94.9631,-67.2455,2024-02-12 15:44:40.906,4.0
-0.5688,-0.1494,-0.3096,-40.947,-51.3,-79.1779,2024-02-12 15:44:40.923,4.0
-0.7266,-0.0879,-0.3088,-44.1284,2.3117,-77.7817,2024-02-12 15:44:40.939,4.0
-0.8704,-0.071,-0.24,-52.5818,19.1574,-76.7746,2024-02-12 15:44:40.963,4.0
-1.0042,-0.1101,-0.1187,-55.3436,-16.1133,-75.325,2024-02-12 15:44:40.979,4.0
-0.9377,-0.1875,-0.0405,-52.7802,-65.9866,-67.0166,2024-02-12 15:44:40.996,4.0
-0.6587,-0.2297,-0.0642,-48.1262,-98.4955,-58.2504,2024-02-12 15:44:41.014,4.0
-0.3584,-0.2263,-0.0281,-41.3284,-102.3788,-52.7115,2024-02-12 15:44:41.030,4.0
-0.1389,-0.2156,-0.0295,-32.3639,-83.5114,-51.6129,2024-02-12 15:44:41.046,4.0
-0.1038,-0.1997,-0.1331,-27.0386,-49.2096,-51.3382,2024-02-12 15:44:41.062,4.0
-0.166,-0.1934,-0.1338,-28.8925,-16.7542,-51.7426,2024-02-12 15:44:41.106,4.0
-0.3357,-0.1604,-0.0593,-29.808,2.8534,-50.3616,2024-02-12 15:44:41.114,4.0
-0.5227,-0.1772,-0.0063,-29.2587,12.2833,-44.2505,2024-02-12 15:44:41.122,4.0
-0.7168,-0.2085,-0.0012,-27.3819,2.6093,-33.226,2024-02-12 15:44:41.139,4.0
-0.814,-0.2166,-0.0129,-25.3677,-22.6288,-16.7618,2024-02-12 15:44:41.155,4.0
-0.6533,-0.2502,0.0496,-25.0397,-47.0657,-1.7624,2024-02-12 15:44:41.180,4.0
-0.4373,-0.2422,0.1333,-23.2773,-41.1453,-0.0153,2024-02-12 15:44:41.223,4.0
-0.4285,-0.3013,0.2817,-23.14,-4.6463,-6.3782,2024-02-12 15:44:41.223,4.0
-0.553,-0.2808,0.3838,-23.9029,30.5634,-15.1901,2024-02-12 15:44:41.231,4.0
-0.9209,-0.1997,0.4602,-26.3748,51.9943,-20.6985,2024-02-12 15:44:41.247,4.0
-1.2708,-0.2065,0.2363,-27.0996,45.3033,-12.1918,2024-02-12 15:44:41.272,4.0
-1.3635,-0.2607,-0.175,-34.8282,25.65,-2.8687,2024-02-12 15:44:41.280,4.0
-1.4341,-0.6807,0.3054,-40.535,18.3487,-43.1366,2024-02-12 15:44:41.304,4.0
-2.0247,-0.6904,0.6431,15.8463,23.8419,-46.0052,2024-02-12 15:44:41.320,4.0
-2.0264,-0.7073,0.0493,33.2031,-0.6104,-0.7477,2024-02-12 15:44:41.336,4.0
-1.1106,-0.4988,0.0657,30.159,0.618,23.7961,2024-02-12 15:44:41.369,4.0
-1.0869,-0.4131,-0.0598,36.1099,15.0986,14.6866,2024-02-12 15:44:41.369,4.0
-1.1348,-0.324,-0.1279,35.7285,35.7513,35.1944,2024-02-12 15:44:41.386,4.0
-1.001,-0.3699,-0.2971,42.1219,28.1906,49.1867,2024-02-12 15:44:41.402,4.0
-0.9009,-0.2795,-0.4292,41.0843,3.2349,57.3349,2024-02-12 15:44:41.427,4.0
-0.6714,-0.1943,-0.2803,39.5126,-16.8152,56.3202,2024-02-12 15:44:41.443,4.0
-0.6243,-0.1782,-0.1052,45.1126,-13.6871,49.7284,2024-02-12 15:44:41.467,4.0
-0.5735,-0.1506,-0.0557,52.2614,-5.3101,47.4548,2024-02-12 15:44:41.483,4.0
-0.5681,-0.0776,-0.0479,54.5273,-8.7128,46.5546,2024-02-12 15:44:41.499,4.0
-0.5911,-0.0144,-0.0405,54.306,-11.5585,48.8663,2024-02-12 15:44:41.515,4.0
-0.5708,0.0139,-0.0676,54.5654,-6.2714,54.512,2024-02-12 15:44:41.540,4.0
-0.4949,0.0505,-0.1279,50.9186,-2.3117,54.245,2024-02-12 15:44:41.556,4.0
-0.4517,0.0857,-0.1123,43.8995,1.4191,48.6908,2024-02-12 15:44:41.572,4.0
-0.405,0.0115,-0.1367,37.6434,2.5558,42.8696,2024-02-12 15:44:41.588,4.0
-0.3906,-0.061,-0.1409,32.8369,7.9193,39.566,2024-02-12 15:44:41.612,4.0
-0.3865,-0.0745,-0.0884,31.6544,17.9138,38.0402,2024-02-12 15:44:41.628,4.0
-0.4919,-0.0337,0.002,33.7448,32.0663,36.4151,2024-02-12 15:44:41.669,4.0
-0.5972,0.033,0.043,36.0794,35.1486,40.062,2024-02-12 15:44:41.669,4.0
-0.5203,0.03,0.0017,27.42,26.8173,43.4875,2024-02-12 15:44:41.677,4.0
-0.3901,0.0889,0.0923,14.7781,32.0816,33.9737,2024-02-12 15:44:41.694,4.0
-0.4238,0.231,0.2063,6.6147,66.0019,14.8926,2024-02-12 15:44:41.718,4.0
-0.761,0.3743,0.1704,-4.5319,107.5821,-0.3204,2024-02-12 15:44:41.737,4.0
-1.1672,0.2305,0.1755,-17.952,97.7554,-7.4005,2024-02-12 15:44:41.753,4.0
-1.5647,0.2083,0.1453,-13.092,58.6166,0.8011,2024-02-12 15:44:41.761,4.0
-1.5569,0.1868,-0.0481,-19.1879,6.691,6.4087,2024-02-12 15:44:41.778,4.0
-1.3787,0.0112,-0.0696,-27.504,-44.838,7.2174,2024-02-12 15:44:41.803,4.0
-1.3103,0.1306,-0.1902,-41.7099,-38.8794,9.4757,2024-02-12 15:44:41.819,4.0
-1.4714,0.5046,-0.1494,-54.5883,21.2173,23.7503,2024-02-12 15:44:41.844,4.0
-1.0703,0.3103,-0.4014,-71.4493,34.1034,-3.2043,2024-02-12 15:44:41.852,4.0
-0.9753,-0.0122,-0.22,-60.9665,-3.8071,-45.7382,2024-02-12 15:44:41.877,4.0
-0.8887,-0.0007,-0.5334,-44.4946,-24.3301,-57.5256,2024-02-12 15:44:41.893,4.0
-0.7754,0.0012,-0.4749,-46.2341,-25.0626,-60.9131,2024-02-12 15:44:41.910,4.0
-0.8665,0.0073,-0.376,-45.4559,-5.3024,-67.5659,2024-02-12 15:44:41.926,4.0
-0.9189,-0.0066,-0.303,-53.4286,0.5112,-63.9038,2024-02-12 15:44:41.951,4.0
-0.9094,-0.0562,-0.2134,-62.5687,-22.2092,-61.7828,2024-02-12 15:44:41.960,4.0
-0.856,-0.177,-0.1416,-71.6705,-55.5267,-64.1098,2024-02-12 15:44:41.984,4.0
-0.7476,-0.218,-0.0691,-69.458,-71.5103,-65.3152,2024-02-12 15:44:42.001,4.0
-0.6189,-0.2412,-0.0068,-66.3681,-76.2405,-64.0564,2024-02-12 15:44:42.020,4.0
-0.4861,-0.2803,0.0996,-56.9305,-79.277,-57.6019,2024-02-12 15:44:42.043,4.0
-0.3342,-0.2734,0.0806,-46.0587,-71.1823,-57.9605,2024-02-12 15:44:42.060,4.0
-0.3159,-0.2207,0.0024,-39.7873,-43.7241,-64.5218,2024-02-12 15:44:42.076,4.0
-0.3806,-0.1606,-0.0288,-37.0941,-20.4468,-66.9556,2024-02-12 15:44:42.116,4.0
-0.5112,-0.1504,0.001,-33.4625,-10.9558,-68.3365,2024-02-12 15:44:42.124,4.0
-0.5798,-0.1511,0.012,-29.6021,-9.4528,-65.7349,2024-02-12 15:44:42.124,4.0
-0.6333,-0.2253,0.0649,-26.7258,-7.9269,-56.3049,2024-02-12 15:44:42.143,4.0
-0.6423,-0.3425,0.1589,-22.3236,-4.0894,-44.693,2024-02-12 15:44:42.160,4.0
-0.6204,-0.3425,0.1562,-16.4032,8.8959,-42.2134,2024-02-12 15:44:42.184,4.0
-0.6421,-0.2739,0.1724,-13.0005,24.6964,-46.3409,2024-02-12 15:44:42.200,4.0
-0.7375,-0.2715,0.1992,-8.1329,47.8287,-51.7273,2024-02-12 15:44:42.216,4.0
-0.967,-0.3999,0.2078,-4.9896,65.6738,-47.7142,2024-02-12 15:44:42.232,4.0
-1.1807,-0.5283,0.1724,-4.3182,50.499,-32.5851,2024-02-12 15:44:42.256,4.0
-1.2112,-0.5583,0.1755,-9.6054,5.2109,-10.025,2024-02-12 15:44:42.272,4.0
-1.0129,-0.4089,0.2761,-22.522,-37.5824,16.1285,2024-02-12 15:44:42.288,4.0
-0.7891,-0.4414,-0.217,-13.0157,-29.5563,20.6451,2024-02-12 15:44:42.312,4.0
-0.7781,-0.582,0.302,-19.043,22.6517,-31.8604,2024-02-12 15:44:42.345,4.0
-1.3433,-0.5876,0.1372,15.5258,58.7234,-49.7971,2024-02-12 15:44:42.345,4.0
-1.8845,-0.3955,-0.1289,26.5656,52.597,8.934,2024-02-12 15:44:42.361,4.0
-1.1248,-0.2566,-0.3494,27.3361,12.8021,44.5557,2024-02-12 15:44:42.378,4.0
-0.7842,-0.0935,-0.3201,1.4267,-17.9443,55.748,2024-02-12 15:44:42.402,4.0
-0.5547,-0.1826,-0.1838,1.915,-1.7776,55.3665,2024-02-12 15:44:42.419,4.0
-0.5469,-0.3069,-0.2112,4.7913,21.4462,46.4783,2024-02-12 15:44:42.435,4.0
-0.7163,-0.3171,-0.167,6.5765,44.7083,42.3584,2024-02-12 15:44:42.454,4.0
-0.8662,-0.2532,-0.0798,10.1547,36.972,44.9677,2024-02-12 15:44:42.478,4.0
-0.9055,-0.189,-0.0305,15.6174,6.9504,49.4156,2024-02-12 15:44:42.486,4.0
-0.9021,-0.0767,-0.0244,21.286,-21.553,59.166,2024-02-12 15:44:42.502,4.0
-0.801,-0.0103,-0.0569,19.5465,-38.8412,68.1076,2024-02-12 15:44:42.527,4.0
-0.6367,0.0269,-0.063,16.4795,-47.226,72.2885,2024-02-12 15:44:42.544,4.0
-0.4832,0.0317,-0.1094,10.5591,-40.741,69.1528,2024-02-12 15:44:42.568,4.0
-0.2874,0.0264,-0.1831,-0.9079,-16.1743,56.9382,2024-02-12 15:44:42.576,4.0
-0.2046,0.0774,-0.1465,-12.4435,8.4305,36.8347,2024-02-12 15:44:42.601,4.0
-0.2986,0.095,-0.0896,-21.9193,30.8533,20.4163,2024-02-12 15:44:42.617,4.0
-0.4346,0.0728,-0.103,-29.8538,51.5518,14.9994,2024-02-12 15:44:42.633,4.0
-0.5234,0.0703,-0.0947,-39.5432,58.876,10.3149,2024-02-12 15:44:42.657,4.0
-0.6611,0.0798,-0.0654,-48.1339,54.6494,3.8757,2024-02-12 15:44:42.673,4.0
-0.7969,0.0715,-0.1001,-54.8477,49.1562,3.9291,2024-02-12 15:44:42.689,4.0
-0.8137,0.0747,-0.1296,-61.5387,34.6298,2.182,2024-02-12 15:44:42.705,4.0
-0.8013,0.0696,-0.0962,-66.4291,11.0397,-0.4349,2024-02-12 15:44:42.729,4.0
-0.738,0.0591,-0.0186,-67.7719,-5.1804,-3.4409,2024-02-12 15:44:42.745,4.0
-0.6948,0.0762,0.0325,-64.9261,-2.9984,-8.5297,2024-02-12 15:44:42.769,4.0
-0.6841,0.1248,0.0251,-61.0199,3.9825,-13.7558,2024-02-12 15:44:42.785,4.0
-0.7339,0.1631,0.02,-60.9131,6.7062,-17.395,2024-02-12 15:44:42.801,4.0
-0.8271,0.0835,0.1667,-61.8973,-0.9308,-20.8511,2024-02-12 15:44:42.817,4.0
-0.8992,0.0515,0.29,-57.8003,-10.6354,-21.3928,2024-02-12 15:44:42.842,4.0
-0.8618,0.0627,0.3296,-55.1605,-21.9498,-23.0026,2024-02-12 15:44:42.850,4.0
-0.7927,0.083,0.291,-58.2428,-27.9083,-28.6942,2024-02-12 15:44:42.870,4.0
-0.8254,0.2402,0.1475,-64.003,-11.6043,-38.0859,2024-02-12 15:44:42.894,4.0
-0.9275,0.4055,-0.2256,-64.6896,14.2899,-38.9481,2024-02-12 15:44:42.902,4.0
-1.3833,0.3284,-0.7976,-84.6863,83.3664,-29.1061,2024-02-12 15:44:42.926,4.0
-1.97,0.1904,-0.043,-106.5903,68.8858,-2.1439,2024-02-12 15:44:42.942,4.0
-1.5608,-0.1978,0.2969,-83.8165,-61.3556,19.9432,2024-02-12 15:44:42.966,4.0
-0.5735,-0.1165,-0.3689,-81.8176,-170.3568,-8.5754,2024-02-12 15:44:42.982,4.0
-0.21,0.0186,-0.5808,-86.5784,-166.7938,-27.2446,2024-02-12 15:44:42.998,4.0
-0.1262,-0.0996,-0.4851,-87.6923,-74.9435,-35.6979,2024-02-12 15:44:43.014,4.0
-0.3313,-0.2136,0.0476,-70.282,55.0995,-56.2592,2024-02-12 15:44:43.038,4.0
-1.1033,-0.2026,0.0911,-48.5001,120.5292,-46.4706,2024-02-12 15:44:43.062,4.0
-1.4063,-0.1174,-0.2122,-56.7322,140.0528,-20.0806,2024-02-12 15:44:43.075,4.0
-0.8711,-0.1772,-0.311,-66.8945,10.5438,-34.5688,2024-02-12 15:44:43.091,4.0
-1.1389,-0.1936,-0.2305,-65.4678,-106.6513,-33.3939,2024-02-12 15:44:43.115,4.0
-0.8379,-0.0701,-0.0999,-67.9016,-130.3635,-35.3241,2024-02-12 15:44:43.123,4.0
-0.5781,0.002,-0.1562,-75.3632,-104.332,-41.7633,2024-02-12 15:44:43.139,4.0
-0.5024,0.0076,-0.2314,-79.7882,-50.4379,-45.7916,2024-02-12 15:44:43.164,4.0
-0.5627,-0.0613,-0.24,-87.3718,-17.6544,-45.5399,2024-02-12 15:44:43.180,4.0
-0.6626,-0.134,-0.144,-94.7342,-10.4446,-46.051,2024-02-12 15:44:43.196,4.0
-0.7717,-0.1582,-0.0049,-95.253,-21.5683,-43.8995,2024-02-12 15:44:43.212,4.0
-0.7698,-0.2048,-0.0334,-95.5963,-32.9895,-39.8788,2024-02-12 15:44:43.236,4.0
-0.7375,-0.2117,0.0098,-94.1925,-34.2102,-35.8658,2024-02-12 15:44:43.252,4.0
-0.7122,-0.2134,0.0532,-90.7593,-26.4435,-28.6026,2024-02-12 15:44:43.277,4.0
-0.6636,-0.2417,0.0986,-84.0225,-14.5035,-20.1797,2024-02-12 15:44:43.288,4.0
-0.6709,-0.2952,0.1426,-75.9354,-3.8986,-10.3912,2024-02-12 15:44:43.305,4.0
-0.6699,-0.3101,0.2156,-66.2384,0.473,-3.2425,2024-02-12 15:44:43.321,4.0
-0.6792,-0.2942,0.2859,-58.5022,3.1815,-1.0452,2024-02-12 15:44:43.345,4.0
-0.7119,-0.2532,0.4138,-51.6434,4.8294,-1.5564,2024-02-12 15:44:43.361,4.0
-0.7554,-0.3142,0.488,-38.8336,6.6986,-1.358,2024-02-12 15:44:43.380,4.0
-0.8313,-0.2561,0.4663,-23.0942,14.3661,-5.3329,2024-02-12 15:44:43.396,4.0
-0.957,-0.1228,0.4438,-15.1215,11.3678,-2.6398,2024-02-12 15:44:43.420,4.0
-0.9634,-0.0681,0.4014,-8.7814,-7.0114,-0.3433,2024-02-12 15:44:43.437,4.0
-0.9614,-0.0791,0.3704,-12.291,-27.0844,0.5798,2024-02-12 15:44:43.453,4.0
-0.8809,-0.1738,0.3335,-18.0969,-44.6854,2.4033,2024-02-12 15:44:43.469,4.0
-0.7532,-0.3701,0.0798,-32.4554,-26.9165,-8.5602,2024-02-12 15:44:43.496,4.0
-0.8911,-0.249,0.0276,-33.6075,36.9186,-49.7894,2024-02-12 15:44:43.504,4.0
-1.3716,-0.2593,-0.0811,-10.3455,64.2776,-79.0405,2024-02-12 15:44:43.528,4.0
-1.47,-0.5061,-0.3901,20.1035,29.007,-56.2897,2024-02-12 15:44:43.545,4.0
-1.2458,-0.395,-0.7859,4.0741,-62.5229,-24.3378,2024-02-12 15:44:43.561,4.0
-0.97,-0.1589,-0.3201,-30.0446,-109.5734,10.1089,2024-02-12 15:44:43.577,4.0
-0.5076,-0.1477,-0.1086,-39.3448,-73.0896,40.3214,2024-02-12 15:44:43.601,4.0
-0.5286,-0.0256,-0.1494,-52.2232,10.2997,35.7361,2024-02-12 15:44:43.626,4.0
-0.8535,0.2131,-0.0405,-53.6804,63.4003,30.5099,2024-02-12 15:44:43.634,4.0
-1.1865,0.1086,-0.0706,-39.1846,72.403,29.2282,2024-02-12 15:44:43.650,4.0
-1.2642,-0.0303,-0.2473,-45.9137,26.0773,35.6827,2024-02-12 15:44:43.674,4.0
-1.0085,-0.1907,-0.0945,-50.9796,-40.9317,44.3344,2024-02-12 15:44:43.690,4.0
-0.7881,-0.3191,-0.0576,-44.5633,-63.7894,51.4832,2024-02-12 15:44:43.715,4.0
-0.532,-0.3115,-0.116,-34.1797,-35.5301,58.4717,2024-02-12 15:44:43.724,4.0
-0.4675,-0.1887,-0.0178,-29.9149,5.188,55.481,2024-02-12 15:44:43.748,4.0
-0.5969,-0.0437,0.0659,-27.9922,30.4642,44.0445,2024-02-12 15:44:43.765,4.0
-0.6565,0.009,0.0781,-21.5225,31.3416,39.4135,2024-02-12 15:44:43.781,4.0
-0.7251,0.0264,0.0703,-15.625,12.9013,39.0396,2024-02-12 15:44:43.797,4.0
-0.6584,0.0371,0.0571,-12.0773,0.267,37.1704,2024-02-12 15:44:43.813,4.0
-0.5718,0.0649,0.0347,-10.025,-1.1139,30.6396,2024-02-12 15:44:43.829,4.0
-0.4976,0.061,0.043,-8.6517,5.5542,21.3852,2024-02-12 15:44:43.853,4.0
-0.4585,0.0496,0.0928,-7.2556,14.2212,8.9493,2024-02-12 15:44:43.869,4.0
-0.5376,0.0615,0.2156,-2.3575,21.6599,-3.3798,2024-02-12 15:44:43.886,4.0
-0.6882,0.071,0.3281,4.1962,23.1857,-14.0076,2024-02-12 15:44:43.911,4.0
-0.8572,0.0112,0.3477,6.2866,15.7166,-18.6539,2024-02-12 15:44:43.919,4.0
-0.9995,-0.0034,0.3657,5.7602,-4.9362,-12.1155,2024-02-12 15:44:43.944,4.0
-0.969,0.0017,0.2407,4.0512,-25.7263,-3.9597,2024-02-12 15:44:43.960,4.0
-0.8403,0.0522,0.0378,-2.1973,-31.8527,-1.6022,2024-02-12 15:44:43.977,4.0
-0.8149,0.0437,0.0947,-8.4,-12.0697,-7.0114,2024-02-12 15:44:44.018,4.0
-0.979,0.0076,0.2454,-3.8528,22.7585,-7.431,2024-02-12 15:44:44.018,4.0
-0.9868,-0.0347,0.3064,7.6218,26.7334,-1.6251,2024-02-12 15:44:44.034,4.0
-0.9336,0.1931,-0.0125,24.2615,31.662,3.7689,2024-02-12 15:44:44.051,4.0
-1.1436,0.1943,-0.1802,9.491,76.9501,-3.5629,2024-02-12 15:44:44.069,4.0
-1.4473,0.345,-0.1499,-0.1068,59.2117,15.8691,2024-02-12 15:44:44.086,4.0
-1.375,0.4075,-0.6567,-17.3721,33.5846,40.6799,2024-02-12 15:44:44.110,4.0
-1.2515,0.5034,-0.9026,-43.396,16.6016,55.7785,2024-02-12 15:44:44.118,4.0
-0.95,0.0417,-0.6204,-75.1724,-52.1088,46.1502,2024-02-12 15:44:44.142,4.0
-0.6924,-0.2427,-0.0554,-69.6564,-98.9838,27.5955,2024-02-12 15:44:44.159,4.0
-0.4778,-0.2341,0.1621,-46.2875,-102.8519,2.8458,2024-02-12 15:44:44.176,4.0
-0.4871,-0.1711,0.0759,-33.7143,-29.2435,-25.7492,2024-02-12 15:44:44.200,4.0
-0.7029,-0.1958,0.002,-27.1606,39.1235,-51.2772,2024-02-12 15:44:44.211,4.0
-1.1616,-0.0886,-0.2507,-31.2729,54.6265,-56.9153,2024-02-12 15:44:44.236,4.0
-1.3445,-0.0149,-0.2852,-49.5605,10.9863,-41.8243,2024-02-12 15:44:44.244,4.0
-1.1577,-0.0432,-0.0784,-49.5605,-79.5517,-32.8674,2024-02-12 15:44:44.260,4.0
-0.8,0.0027,-0.1152,-52.7496,-110.2066,-26.4282,2024-02-12 15:44:44.286,4.0
-0.4631,0.0159,-0.124,-59.8907,-91.0034,-30.7465,2024-02-12 15:44:44.302,4.0
-0.3557,-0.0449,-0.1128,-69.6793,-43.1976,-40.3366,2024-02-12 15:44:44.318,4.0
-0.4583,-0.1086,-0.0525,-76.9577,-2.3117,-46.3104,2024-02-12 15:44:44.335,4.0
-0.6719,-0.1172,-0.0422,-83.0612,17.8986,-45.9137,2024-02-12 15:44:44.359,4.0
-0.8687,-0.0916,-0.0149,-87.883,19.7906,-39.2456,2024-02-12 15:44:44.376,4.0
-0.9038,-0.1006,0.0503,-85.6018,-8.8196,-25.795,2024-02-12 15:44:44.400,4.0
-0.7783,-0.1299,0.0854,-80.8792,-33.3939,-9.8572,2024-02-12 15:44:44.408,4.0
-0.5266,-0.1821,0.1172,-76.0422,-37.2772,4.5395,2024-02-12 15:44:44.424,4.0
-0.4331,-0.2444,0.1711,-71.7163,-12.1002,12.8403,2024-02-12 15:44:44.449,4.0
-0.5215,-0.2832,0.2437,-62.8662,16.3116,17.0822,2024-02-12 15:44:44.465,4.0
-0.7231,-0.2646,0.2688,-53.0701,32.8751,23.9792,2024-02-12 15:44:44.481,4.0
-0.8577,-0.1599,0.2405,-44.7235,20.3094,28.5339,2024-02-12 15:44:44.497,4.0
-0.8157,-0.2041,0.1277,-45.1736,-5.3864,21.965,2024-02-12 15:44:44.522,4.0
-0.8242,-0.1099,0.1245,-39.7644,-10.5362,9.3765,2024-02-12 15:44:44.538,4.0
-0.7568,-0.0393,0.0256,-30.8228,3.2196,0.6027,2024-02-12 15:44:44.554,4.0
-0.7952,-0.021,0.1396,-29.9301,25.6119,-21.9269,2024-02-12 15:44:44.579,4.0
-0.9644,-0.095,0.2708,-29.5792,34.3857,-32.8445,2024-02-12 15:44:44.603,4.0
-1.1033,-0.1401,0.3303,-33.3633,29.5486,-30.571,2024-02-12 15:44:44.611,4.0
-1.0994,-0.1987,0.1516,-37.6129,23.3536,-24.704,2024-02-12 15:44:44.630,4.0
-1.1692,-0.0259,0.1306,-35.0876,28.923,-41.2292,2024-02-12 15:44:44.647,4.0
-1.3098,-0.1599,-0.0527,-35.1563,15.5716,-50.766,2024-02-12 15:44:44.663,4.0
-1.2478,-0.3098,-0.1106,-22.171,-9.2926,-37.5366,2024-02-12 15:44:44.679,4.0
-0.978,-0.365,-0.311,-11.0474,-15.4419,-41.5649,2024-02-12 15:44:44.703,4.0
-0.9661,-0.3433,-0.4019,-18.9362,-10.6888,-36.972,2024-02-12 15:44:44.719,4.0
-0.8247,-0.2214,-0.1965,-36.0107,-24.3225,-14.3356,2024-02-12 15:44:44.735,4.0
-0.6343,-0.0364,-0.123,-43.9606,-31.868,7.1793,2024-02-12 15:44:44.752,4.0
-0.5107,0.1738,-0.1829,-54.657,-4.837,16.5863,2024-02-12 15:44:44.776,4.0
-0.585,0.2642,-0.1162,-65.5746,39.5432,15.0528,2024-02-12 15:44:44.792,4.0
-0.9094,0.2053,-0.0647,-64.1327,75.8209,7.0343,2024-02-12 15:44:44.808,4.0
-1.1128,-0.0149,-0.1023,-63.8351,67.3218,10.0632,2024-02-12 15:44:44.824,4.0
-1.1758,-0.1362,-0.0591,-63.2248,25.9628,17.0975,2024-02-12 15:44:44.849,4.0
-1.0688,-0.2209,-0.0144,-61.6455,-19.4016,25.3448,2024-02-12 15:44:44.865,4.0
-0.8853,-0.2234,-0.0574,-57.4036,-33.1039,32.4173,2024-02-12 15:44:44.881,4.0
-0.6787,-0.1436,-0.0366,-52.3453,-20.5536,33.8364,2024-02-12 15:44:44.898,4.0
-0.6191,-0.0679,-0.0317,-49.1867,-1.5869,28.5187,2024-02-12 15:44:44.914,4.0
-0.6814,-0.0076,0.0098,-45.1202,12.9929,21.7743,2024-02-12 15:44:44.938,4.0
-0.7217,0.0308,0.0291,-42.1829,6.2256,20.7748,2024-02-12 15:44:44.954,4.0
-0.6824,0.0242,0.0225,-40.0162,-9.964,18.5089,2024-02-12 15:44:44.975,4.0
-0.6094,0.053,0.0188,-37.1933,-17.6544,14.473,2024-02-12 15:44:44.991,4.0
-0.5247,0.1013,0.0337,-34.7672,-9.8648,8.873,2024-02-12 15:44:45.007,4.0
-0.479,0.1208,0.0715,-31.2881,7.0419,1.0529,2024-02-12 15:44:45.031,4.0
-0.5186,0.1101,0.1218,-27.0081,20.7138,-6.3477,2024-02-12 15:44:45.039,4.0
-0.6001,0.0847,0.1711,-21.0037,22.6746,-13.3743,2024-02-12 15:44:45.090,4.0
-0.667,0.053,0.1814,-16.9678,13.0844,-21.0419,2024-02-12 15:44:45.090,4.0
-0.7505,0.0786,0.1575,-15.4877,4.9744,-25.8865,2024-02-12 15:44:45.098,4.0
-0.8542,0.0449,0.1655,-15.7318,-0.8087,-23.7656,2024-02-12 15:44:45.114,4.0
-0.9048,-0.0586,0.1177,-13.7253,-13.9008,-18.4937,2024-02-12 15:44:45.138,4.0
-0.8857,-0.0945,-0.0659,-11.055,-11.1313,-11.9629,2024-02-12 15:44:45.162,4.0
-0.9531,-0.0647,-0.0386,-8.8425,17.3264,-4.6463,2024-02-12 15:44:45.178,4.0
-1.1143,0.0781,0.1733,1.4114,54.5502,3.4332,2024-02-12 15:44:45.194,4.0
-1.1157,0.1338,0.219,10.8337,51.9714,7.0496,2024-02-12 15:44:45.218,4.0
-1.0222,0.2295,-0.0598,12.9089,51.4374,5.9357,2024-02-12 15:44:45.227,4.0
-1.1836,0.0564,-0.0684,7.1259,73.5168,-6.8893,2024-02-12 15:44:45.243,4.0
-1.4519,0.1897,-0.0171,5.3864,48.3246,0.1602,2024-02-12 15:44:45.259,4.0
-1.2158,0.5088,-0.5833,-7.6752,-1.4801,11.8103,2024-02-12 15:44:45.275,4.0
-1.1013,0.636,-0.8928,-46.6614,-12.3062,14.7705,2024-02-12 15:44:45.299,4.0
-1.0173,0.2263,-0.7429,-79.5822,-35.8963,21.4539,2024-02-12 15:44:45.315,4.0
-0.792,-0.1877,-0.4583,-95.787,-78.1784,15.976,2024-02-12 15:44:45.339,4.0
-0.5161,-0.3193,0.0229,-91.3315,-110.939,4.6997,2024-02-12 15:44:45.347,4.0
-0.4001,-0.2327,0.2336,-69.1986,-101.3947,-13.5269,2024-02-12 15:44:45.371,4.0
-0.4587,-0.1509,0.0913,-54.3747,-33.2336,-26.8402,2024-02-12 15:44:45.387,4.0
-0.6382,-0.1526,-0.145,-48.5077,48.2254,-41.4734,2024-02-12 15:44:45.403,4.0
-1.0198,-0.1011,-0.2668,-54.6875,66.1316,-47.8058,2024-02-12 15:44:45.428,4.0
-1.291,-0.0554,-0.2598,-70.5338,24.3225,-40.0543,2024-02-12 15:44:45.436,4.0
-1.144,-0.0994,-0.1062,-68.0542,-65.8722,-36.5906,2024-02-12 15:44:45.462,4.0
-0.8909,-0.075,-0.1118,-68.8705,-98.4344,-29.8615,2024-02-12 15:44:45.479,4.0
-0.605,-0.0667,-0.1072,-71.9299,-92.9718,-31.1508,2024-02-12 15:44:45.495,4.0
-0.4438,-0.0842,-0.1316,-77.8885,-63.0646,-39.1464,2024-02-12 15:44:45.514,4.0
-0.4858,-0.0715,-0.0879,-85.8688,-37.9028,-46.8979,2024-02-12 15:44:45.530,4.0
-0.6636,-0.0212,0.0203,-93.7347,-18.0817,-50.8957,2024-02-12 15:44:45.547,4.0
-0.832,0.0083,0.0625,-97.4121,-19.7372,-44.3344,2024-02-12 15:44:45.562,4.0
-0.8257,-0.0232,0.0322,-98.877,-34.6375,-29.6021,2024-02-12 15:44:45.587,4.0
-0.6372,-0.1096,0.0134,-98.7549,-51.0941,-14.1525,2024-02-12 15:44:45.603,4.0
-0.4565,-0.1992,0.0586,-96.3516,-44.487,-5.6229,2024-02-12 15:44:45.620,4.0
-0.4033,-0.2705,0.1663,-88.5544,-6.8207,-1.8463,2024-02-12 15:44:45.636,4.0
-0.5452,-0.3064,0.2588,-76.1337,30.1437,1.9608,2024-02-12 15:44:45.660,4.0
-0.7429,-0.3286,0.2825,-59.0363,41.0385,6.752,2024-02-12 15:44:45.679,4.0
-0.8665,-0.3398,0.2808,-46.7987,26.2604,8.6441,2024-02-12 15:44:45.696,4.0
-0.9688,-0.436,0.2896,-36.0565,3.6163,3.1738,2024-02-12 15:44:45.712,4.0
-1.0361,-0.3066,0.2014,-15.007,-3.2349,0.3815,2024-02-12 15:44:45.736,4.0
-0.9482,-0.103,0.0117,-13.5345,-13.0997,0.8011,2024-02-12 15:44:45.744,4.0
-0.9321,0.0979,0.2317,-22.0718,-10.4065,-7.8812,2024-02-12 15:44:45.771,4.0
-0.9666,0.0596,0.375,-24.4904,-4.7302,-10.8261,2024-02-12 15:44:45.787,4.0
-0.9453,-0.0393,0.406,-28.0991,-12.8632,-6.279,2024-02-12 15:44:45.811,4.0
-0.8218,-0.2544,0.1685,-37.8036,-14.2136,-7.1564,2024-02-12 15:44:45.820,4.0
-1.0078,-0.1814,0.2546,-44.9524,33.0811,-42.8848,2024-02-12 15:44:45.836,4.0
-1.3362,-0.3413,0.0544,-31.1356,29.2664,-59.5474,2024-02-12 15:44:45.861,4.0
-1.406,-0.45,-0.0891,-11.6959,10.9787,-56.4346,2024-02-12 15:44:45.879,4.0
-1.2739,-0.4575,-0.4011,5.3482,-36.7203,-45.1431,2024-02-12 15:44:45.895,4.0
-0.9333,-0.4077,-0.4739,-1.297,-69.2596,-36.6287,2024-02-12 15:44:45.919,4.0
-0.707,-0.0752,-0.2737,-24.0326,-75.7751,-10.6277,2024-02-12 15:44:45.936,4.0
-0.4412,-0.0713,-0.0911,-39.8712,-21.8887,19.4931,2024-02-12 15:44:45.952,4.0
-0.6345,0.0354,-0.0198,-43.3731,49.0875,25.0626,2024-02-12 15:44:45.971,4.0
-1.0017,0.1934,-0.0154,-45.578,78.4836,26.8936,2024-02-12 15:44:45.996,4.0
-1.2256,0.0278,-0.1038,-34.9197,69.4733,29.4952,2024-02-12 15:44:46.012,4.0
-1.283,-0.0879,-0.1936,-43.3655,19.7678,41.1301,2024-02-12 15:44:46.028,4.0
-1.0342,-0.2117,-0.0312,-47.0963,-34.8129,48.4314,2024-02-12 15:44:46.044,4.0
-0.7729,-0.292,-0.033,-41.9693,-45.372,54.9927,2024-02-12 15:44:46.068,4.0
-0.564,-0.218,0.0281,-35.8658,-21.2936,58.3878,2024-02-12 15:44:46.085,4.0
-0.5469,-0.1399,0.0549,-30.3955,9.1934,53.4668,2024-02-12 15:44:46.104,4.0
-0.6313,-0.0769,0.0972,-24.353,20.4391,48.1644,2024-02-12 15:44:46.129,4.0
-0.7017,-0.0291,0.1331,-19.0048,12.6266,45.311,2024-02-12 15:44:46.145,4.0
-0.7085,0.0,0.0715,-14.9536,-7.9117,39.1083,2024-02-12 15:44:46.177,4.0
-0.5486,0.0056,0.0425,-11.7264,-17.2424,35.8353,2024-02-12 15:44:46.185,4.0
-0.4946,0.0557,0.0649,-7.6065,-12.7716,30.2124,2024-02-12 15:44:46.201,4.0
-0.4272,0.0852,0.0962,-5.4169,-1.4801,20.2103,2024-02-12 15:44:46.217,4.0
-0.4124,0.103,0.1558,-1.8082,11.9019,7.8583,2024-02-12 15:44:46.233,4.0
-0.5422,0.1064,0.2705,4.4708,25.9552,-6.3629,2024-02-12 15:44:46.249,4.0
-0.7446,0.0454,0.3201,7.637,25.6348,-16.0446,2024-02-12 15:44:46.273,4.0
-0.9314,-0.0127,0.3091,11.4746,11.5433,-15.1672,2024-02-12 15:44:46.289,4.0
-0.9417,0.0017,0.1794,12.9929,-21.3089,-2.9602,2024-02-12 15:44:46.305,4.0
-0.7715,0.0496,-0.1189,-1.7166,-34.8816,1.2054,2024-02-12 15:44:46.325,4.0
-0.7129,0.0869,-0.0542,-10.8414,13.7787,-4.0359,2024-02-12 15:44:46.349,4.0
-0.9795,0.1399,0.2056,-7.6447,84.8541,-5.394,2024-02-12 15:44:46.357,4.0
-1.1782,0.0676,0.2627,7.3776,92.0639,4.1428,2024-02-12 15:44:46.381,4.0
-1.2114,0.1265,0.1338,11.1847,54.1,14.6255,2024-02-12 15:44:46.406,4.0
-1.1936,0.2031,-0.1057,9.9411,56.3507,23.4146,2024-02-12 15:44:46.431,4.0
-1.437,0.0481,0.0789,1.0452,69.9921,21.4005,2024-02-12 15:44:46.439,4.0
-1.4365,0.2957,-0.126,6.5384,25.795,47.5006,2024-02-12 15:44:46.456,4.0
-1.0034,0.3611,-0.5681,-15.9836,-25.5432,42.5949,2024-02-12 15:44:46.472,4.0
-1.0552,0.2141,-0.3833,-31.0287,-30.1056,41.8777,2024-02-12 15:44:46.488,4.0
-0.8037,0.0032,-0.3774,-33.2489,-49.7437,40.3748,2024-02-12 15:44:46.512,4.0
-0.5579,-0.1702,-0.1714,-38.0325,-69.3665,20.2866,2024-02-12 15:44:46.528,4.0
-0.3716,-0.1904,0.0549,-27.2141,-62.0499,-3.7842,2024-02-12 15:44:46.552,4.0
-0.5471,-0.0715,0.0381,-8.1406,19.3176,-26.8936,2024-02-12 15:44:46.569,4.0
-0.8511,-0.0674,-0.1333,-2.2583,94.2841,-40.2603,2024-02-12 15:44:46.585,4.0
-1.1707,-0.0291,-0.2412,-6.012,88.5544,-46.8597,2024-02-12 15:44:46.602,4.0
-1.342,-0.0205,-0.2659,-22.6593,0.885,-47.9202,2024-02-12 15:44:46.618,4.0
-1.176,-0.0896,-0.1328,-22.8043,-91.9952,-40.0009,2024-02-12 15:44:46.642,4.0
-0.8286,-0.0793,-0.0913,-22.6364,-109.314,-34.668,2024-02-12 15:44:46.667,4.0
-0.5115,-0.0627,-0.0371,-24.4598,-90.9271,-38.9328,2024-02-12 15:44:46.675,4.0
-0.3694,-0.0667,-0.0811,-27.4963,-57.3959,-47.3633,2024-02-12 15:44:46.694,4.0
-0.386,-0.0618,-0.0703,-35.0113,-18.7454,-53.6575,2024-02-12 15:44:46.711,4.0
-0.499,-0.0632,0.0051,-41.687,7.2632,-54.3289,2024-02-12 15:44:46.727,4.0
-0.6472,-0.0713,0.1016,-43.541,12.886,-50.0259,2024-02-12 15:44:46.751,4.0
-0.7654,-0.1165,0.1304,-42.9382,-1.4954,-34.111,2024-02-12 15:44:46.767,4.0
-0.7153,-0.1252,0.1028,-42.5339,-17.6926,-16.8457,2024-02-12 15:44:46.783,4.0
-0.5757,-0.1248,0.0781,-44.9905,-22.0261,-3.4103,2024-02-12 15:44:46.802,4.0
-0.4839,-0.124,0.1177,-46.5088,-7.2861,5.455,2024-02-12 15:44:46.819,4.0
-0.4927,-0.1138,0.1829,-47.4319,15.5487,11.6577,2024-02-12 15:44:46.843,4.0
-0.6292,-0.1062,0.2173,-45.3033,34.1187,19.8364,2024-02-12 15:44:46.860,4.0
-0.7651,-0.0696,0.2144,-42.2821,36.2091,26.8478,2024-02-12 15:44:46.876,4.0
-0.8408,-0.1423,0.1765,-42.5568,22.7127,27.1454,2024-02-12 15:44:46.894,4.0
-0.9016,-0.1519,0.1643,-40.9546,11.8713,15.3961,2024-02-12 15:44:46.919,4.0
-0.96,-0.0898,0.0808,-39.9551,12.4359,0.5875,2024-02-12 15:44:46.927,4.0
-0.9714,-0.0999,0.0652,-33.638,17.3187,-17.2348,2024-02-12 15:44:46.952,4.0
-1.0674,-0.2549,0.3201,-37.056,22.8882,-38.8336,2024-02-12 15:44:46.976,4.0
-1.1787,-0.189,0.5632,-29.0604,10.3683,-38.0783,2024-02-12 15:44:46.984,4.0
-1.0833,-0.2078,0.2673,-21.5149,-19.371,-24.3073,2024-02-12 15:44:47.008,4.0
-0.8977,-0.4651,-0.1948,-35.7132,13.6719,-40.0848,2024-02-12 15:44:47.024,4.0
-1.1265,-0.2808,0.04,-19.4931,38.6353,-72.3114,2024-02-12 15:44:47.049,4.0
-1.187,-0.8179,-0.2607,-5.9891,32.547,-85.1517,2024-02-12 15:44:47.066,4.0
-1.2219,-0.5933,-0.2871,48.2635,2.7008,-73.7991,2024-02-12 15:44:47.082,4.0
-1.0315,-0.3005,-0.6443,37.323,-40.8325,-50.7278,2024-02-12 15:44:47.098,4.0
-0.8298,-0.0042,-0.3132,16.1285,-60.6766,-19.6228,2024-02-12 15:44:47.117,4.0
-0.6379,-0.0713,-0.1477,4.6005,-36.3541,10.6201,2024-02-12 15:44:47.141,4.0
-0.7656,0.0239,-0.1238,-1.915,34.2484,25.7645,2024-02-12 15:44:47.157,4.0
-1.1021,0.1096,-0.0977,-11.1237,63.1027,40.3824,2024-02-12 15:44:47.173,4.0
-1.2542,-0.0911,-0.1621,-0.3433,59.2957,36.0794,2024-02-12 15:44:47.189,4.0
-1.3713,-0.1238,-0.2769,4.6387,31.6925,31.6772,2024-02-12 15:44:47.214,4.0
-1.3093,-0.127,-0.0989,4.1351,-22.3389,47.2565,2024-02-12 15:44:47.230,4.0
-1.0413,-0.1997,-0.0715,18.0206,-57.9681,66.658,2024-02-12 15:44:47.247,4.0
-0.6348,-0.2485,-0.2339,26.4587,-57.3883,74.913,2024-02-12 15:44:47.263,4.0
-0.4487,-0.2268,-0.1682,26.474,-28.4805,70.7321,2024-02-12 15:44:47.279,4.0
-0.4338,-0.1772,-0.0105,32.8751,6.9199,65.0635,2024-02-12 15:44:47.303,4.0
-0.5107,-0.1362,0.0898,40.3366,24.1089,60.7605,2024-02-12 15:44:47.319,4.0
-0.5815,-0.105,0.135,52.9861,22.2778,56.4423,2024-02-12 15:44:47.335,4.0
-0.6077,-0.0215,0.0393,63.3698,13.588,53.9551,2024-02-12 15:44:47.360,4.0
-0.511,0.1135,-0.0527,67.2302,4.8904,46.2341,2024-02-12 15:44:47.376,4.0
-0.4751,0.2041,-0.0955,61.409,5.3558,35.2631,2024-02-12 15:44:47.401,4.0
-0.5544,0.1619,0.0249,57.7621,15.8844,27.1683,2024-02-12 15:44:47.418,4.0
-0.7122,0.063,0.1199,62.9959,20.8588,23.7579,2024-02-12 15:44:47.442,4.0
-0.7883,0.0125,0.1792,68.6493,10.582,23.1857,2024-02-12 15:44:47.450,4.0
-0.8052,-0.0476,0.1392,73.6923,0.8774,20.6146,2024-02-12 15:44:47.474,4.0
-0.8281,-0.0049,0.1541,75.1801,2.3499,20.0348,2024-02-12 15:44:47.490,4.0
-0.8804,0.0942,0.2185,78.4454,10.3912,29.129,2024-02-12 15:44:47.506,4.0
-0.9341,0.0928,0.1804,83.2443,15.4037,36.8042,2024-02-12 15:44:47.528,4.0
-0.8689,0.093,0.1187,89.8132,13.8626,37.9181,2024-02-12 15:44:47.552,4.0
-0.8503,0.1631,0.1033,92.3004,19.577,24.7726,2024-02-12 15:44:47.560,4.0
-0.7524,0.3103,-0.1875,89.8666,31.2271,0.0305,2024-02-12 15:44:47.584,4.0
-0.9717,0.5813,-0.4832,72.5555,49.9573,-12.8937,2024-02-12 15:44:47.608,4.0
-1.0708,0.7063,-0.6382,40.6342,65.1321,-13.7405,2024-02-12 15:44:47.616,4.0
-1.3398,0.4526,-0.4546,13.2675,80.8182,-0.4959,2024-02-12 15:44:47.640,4.0
-1.509,0.241,-0.3396,-1.503,52.0935,14.0305,2024-02-12 15:44:47.657,4.0
-1.2122,-0.0083,-0.5347,-14.595,-0.9995,1.8234,2024-02-12 15:44:47.681,4.0
-0.8125,-0.0986,-0.4202,-13.6871,-83.4198,-17.662,2024-02-12 15:44:47.694,4.0
-0.6003,-0.1267,-0.3379,-14.5187,-87.1277,-31.4026,2024-02-12 15:44:47.719,4.0
-0.5706,-0.0977,-0.3745,-25.0931,-41.8701,-51.5442,2024-02-12 15:44:47.732,4.0
-0.7778,-0.0667,-0.3555,-36.5906,13.7482,-65.6357,2024-02-12 15:44:47.748,4.0
-1.0291,-0.0039,-0.332,-41.1682,31.3263,-66.4902,2024-02-12 15:44:47.765,4.0
-1.1819,-0.0859,-0.2683,-52.3987,2.1667,-62.6678,2024-02-12 15:44:47.790,4.0
-1.1399,-0.1912,-0.251,-54.2908,-33.8516,-60.0433,2024-02-12 15:44:47.807,4.0
-0.9138,-0.2651,-0.228,-51.5976,-62.5229,-60.112,2024-02-12 15:44:47.823,4.0
-0.6523,-0.3279,-0.1882,-49.0646,-68.306,-67.4362,2024-02-12 15:44:47.839,4.0
-0.5073,-0.342,-0.1367,-43.7088,-58.8455,-75.2792,2024-02-12 15:44:47.863,4.0
-0.4556,-0.3191,-0.1321,-40.2145,-38.1699,-81.3217,2024-02-12 15:44:47.879,4.0
-0.4692,-0.2871,-0.095,-39.032,-15.2664,-85.4797,2024-02-12 15:44:47.903,4.0
-0.562,-0.2461,-0.0391,-39.9323,-9.8724,-84.9915,2024-02-12 15:44:47.919,4.0
-0.6699,-0.1348,0.002,-40.4739,-25.1465,-76.9196,2024-02-12 15:44:47.936,4.0
-0.7356,-0.0964,0.0234,-38.6047,-46.8826,-62.3398,2024-02-12 15:44:47.960,4.0
-0.6443,-0.1226,-0.032,-36.2167,-61.1115,-44.5175,2024-02-12 15:44:47.977,4.0
-0.4316,-0.1934,-0.0806,-37.6205,-56.8466,-32.8293,2024-02-12 15:44:47.993,4.0
-0.2737,-0.2771,0.0654,-43.8004,-23.5062,-26.3596,2024-02-12 15:44:48.009,4.0
-0.3335,-0.3052,0.1807,-48.5611,12.4664,-22.0108,2024-02-12 15:44:48.034,4.0
-0.4673,-0.2778,0.2104,-48.5153,38.8184,-18.9819,2024-02-12 15:44:48.042,4.0
-0.6982,-0.2368,0.2085,-47.4548,49.8581,-14.6713,2024-02-12 15:44:48.067,4.0
-0.8384,-0.1882,0.2805,-49.469,40.9775,-5.4932,2024-02-12 15:44:48.083,4.0
-0.9307,-0.2266,0.2297,-55.5573,28.0304,-0.9079,2024-02-12 15:44:48.100,4.0
-0.9731,-0.2839,0.1543,-69.2673,11.0168,1.2817,2024-02-12 15:44:48.125,4.0
-1.0559,-0.3455,0.2439,-73.2803,1.6556,8.522,2024-02-12 15:44:48.142,4.0
-0.9688,-0.2803,-0.1477,-49.8123,11.734,10.0021,2024-02-12 15:44:48.159,4.0
-1.3303,-0.9829,-0.0708,-64.9796,24.353,-61.6455,2024-02-12 15:44:48.183,4.0
-2.1558,-0.9097,0.6497,4.8065,37.4527,-57.8766,2024-02-12 15:44:48.199,4.0
-1.7903,-0.4082,-0.2036,28.2211,-19.2032,35.5911,2024-02-12 15:44:48.215,4.0
-0.718,-0.2639,-0.3315,-10.5515,-57.4188,62.5916,2024-02-12 15:44:48.231,4.0
-0.5342,-0.3252,-0.2102,-12.8479,-36.1557,52.8793,2024-02-12 15:44:48.256,4.0
-0.6824,-0.4021,-0.198,-2.2049,-5.1727,60.2646,2024-02-12 15:44:48.264,4.0
-0.6602,-0.3965,-0.2593,15.1978,18.8522,63.4232,2024-02-12 15:44:48.288,4.0
-0.8059,-0.2327,-0.2043,22.9797,28.8925,47.3938,2024-02-12 15:44:48.304,4.0
-0.981,-0.1816,-0.0964,38.9862,27.9541,50.2319,2024-02-12 15:44:48.329,4.0
-0.8796,-0.1306,-0.1606,50.415,10.6506,57.3044,2024-02-12 15:44:48.345,4.0
-0.7825,-0.0474,-0.1606,53.5507,-8.0261,61.554,2024-02-12 15:44:48.362,4.0
-0.6917,-0.031,-0.2095,54.8325,-10.2768,65.4373,2024-02-12 15:44:48.378,4.0
-0.6123,-0.0237,-0.2241,52.9022,-1.1673,68.3136,2024-02-12 15:44:48.403,4.0
-0.5396,-0.0251,-0.1611,51.7502,7.8812,64.827,2024-02-12 15:44:48.411,4.0
-0.4934,-0.0691,-0.1428,52.4521,10.4218,58.0978,2024-02-12 15:44:48.436,4.0
-0.4607,-0.1013,-0.1326,54.4357,15.1138,57.1289,2024-02-12 15:44:48.453,4.0
-0.4226,-0.072,-0.1208,56.4499,19.4702,54.6646,2024-02-12 15:44:48.478,4.0
-0.447,-0.0203,-0.0989,59.3796,27.5955,49.9115,2024-02-12 15:44:48.495,4.0
-0.5457,-0.0017,-0.0757,61.3708,36.8805,46.9589,2024-02-12 15:44:48.512,4.0
-0.584,0.0059,-0.1414,60.3561,42.6331,46.1731,2024-02-12 15:44:48.529,4.0
-0.5667,0.0002,-0.1267,51.2466,40.2908,39.4363,2024-02-12 15:44:48.553,4.0
-0.5342,0.1038,0.021,47.8363,27.8015,25.6805,2024-02-12 15:44:48.562,4.0
-0.5667,0.2625,-0.063,39.1312,30.1361,10.8719,2024-02-12 15:44:48.586,4.0
-0.6738,0.3479,-0.0969,20.6223,51.5671,3.273,2024-02-12 15:44:48.611,4.0
-0.8911,0.3357,-0.0527,6.8893,61.6531,-0.9308,2024-02-12 15:44:48.628,4.0
-1.0483,0.3005,-0.0137,-1.1902,42.3737,3.1738,2024-02-12 15:44:48.636,4.0
-1.0303,0.2046,0.0234,-6.9046,-2.9831,2.6398,2024-02-12 15:44:48.661,4.0
-1.0508,0.1609,-0.1824,-11.9629,-30.3421,-1.6937,2024-02-12 15:44:48.678,4.0
-1.0645,0.0405,-0.4116,-33.4625,-14.9918,-11.5891,2024-02-12 15:44:48.694,4.0
-1.3157,0.6123,0.0276,-35.881,24.8871,17.128,2024-02-12 15:44:48.710,4.0
-1.3132,0.2109,-0.5352,-43.6707,64.9872,4.0665,2024-02-12 15:44:48.734,4.0
-1.2695,-0.0076,-0.4326,-48.3856,0.2441,-17.4866,2024-02-12 15:44:48.751,4.0
-0.9363,-0.0122,-0.6016,-47.6227,-58.8455,-44.9219,2024-02-12 15:44:48.770,4.0
-0.7295,0.0781,-0.5066,-57.7164,-55.4504,-61.9202,2024-02-12 15:44:48.786,4.0
-0.7527,0.0381,-0.2488,-63.179,-29.0222,-68.6264,2024-02-12 15:44:48.802,4.0
-0.7043,-0.0225,-0.2664,-71.1517,-10.6125,-67.337,2024-02-12 15:44:48.818,4.0
-0.7192,-0.0493,-0.3162,-81.5201,-11.055,-66.9708,2024-02-12 15:44:48.843,4.0
-0.7737,-0.0596,-0.3342,-93.5898,-22.3923,-67.4438,2024-02-12 15:44:48.859,4.0
-0.7781,-0.1125,-0.2361,-100.6393,-41.9693,-64.6591,2024-02-12 15:44:48.878,4.0
-0.6672,-0.1292,-0.1221,-103.6835,-55.9387,-72.5937,2024-02-12 15:44:48.902,4.0
-0.6003,-0.1636,-0.0178,-100.3647,-55.8777,-81.5811,2024-02-12 15:44:48.919,4.0
-0.5676,-0.2017,0.0098,-89.2487,-47.7066,-80.8945,2024-02-12 15:44:48.935,4.0
-0.5149,-0.2356,-0.0769,-74.9359,-33.5693,-73.9365,2024-02-12 15:44:48.951,4.0
-0.5066,-0.249,-0.1201,-65.6281,-20.6146,-67.07,2024-02-12 15:44:48.967,4.0
-0.5459,-0.2988,-0.0554,-58.6319,-17.7002,-63.3011,2024-02-12 15:44:48.992,4.0
-0.5811,-0.3264,-0.0183,-48.9502,-19.6915,-59.9442,2024-02-12 15:44:49.007,4.0
-0.6279,-0.3167,0.0173,-40.5807,-28.4119,-54.3823,2024-02-12 15:44:49.024,4.0
-0.6724,-0.2983,0.0649,-30.6244,-41.1606,-44.5557,2024-02-12 15:44:49.039,4.0
-0.626,-0.3142,0.0842,-22.4457,-55.6641,-33.3099,2024-02-12 15:44:49.063,4.0
-0.5217,-0.3098,0.1694,-16.5863,-62.0728,-22.3694,2024-02-12 15:44:49.079,4.0
-0.4155,-0.2903,0.2666,-9.3231,-45.1965,-13.3286,2024-02-12 15:44:49.104,4.0
-0.3252,-0.3125,0.2786,-8.5297,-1.5869,-15.0146,2024-02-12 15:44:49.112,4.0
-0.575,-0.2766,0.3965,-10.9711,63.179,-29.2206,2024-02-12 15:44:49.136,4.0
-1.0623,-0.2825,0.3875,-11.467,86.5555,-33.9508,2024-02-12 15:44:49.156,4.0
-1.5215,-0.2183,0.2322,-18.5242,61.9659,-15.419,2024-02-12 15:44:49.172,4.0
-1.3933,-0.1533,-0.1946,-26.413,15.6174,-2.5711,2024-02-12 15:44:49.196,4.0
-1.6052,-0.2075,0.2942,-41.4047,-1.0834,-42.7628,2024-02-12 15:44:49.212,4.0
-1.5564,-0.5232,-0.0405,10.8948,10.5286,-6.3171,2024-02-12 15:44:49.229,4.0
-1.4541,-0.5393,0.0889,-0.0534,22.7814,16.2125,2024-02-12 15:44:49.253,4.0
-0.6111,-0.3345,-0.0935,-2.6245,13.0157,4.2496,2024-02-12 15:44:49.261,4.0
-0.9946,-0.3538,-0.4165,-17.5858,51.2924,8.6136,2024-02-12 15:44:49.288,4.0
-1.1235,-0.5291,-0.2847,-15.5258,68.0161,31.7535,2024-02-12 15:44:49.304,4.0
-1.1343,-0.5044,-0.2522,-4.7531,36.6058,46.4783,2024-02-12 15:44:49.321,4.0
-0.9646,-0.3201,-0.189,7.637,-5.5161,59.1888,2024-02-12 15:44:49.346,4.0
-0.7805,-0.2383,-0.1716,16.4642,-24.2462,65.0101,2024-02-12 15:44:49.362,4.0
-0.6309,-0.2219,-0.1245,23.3459,-26.2222,67.7567,2024-02-12 15:44:49.370,4.0
-0.5095,-0.1616,-0.0654,30.1514,-22.0337,65.033,2024-02-12 15:44:49.396,4.0
-0.4954,-0.0544,-0.0515,33.7372,-18.2266,62.0041,2024-02-12 15:44:49.412,4.0
-0.4971,0.0447,-0.0991,34.4238,-7.3242,59.7458,2024-02-12 15:44:49.436,4.0
-0.4487,0.0947,-0.1326,30.1971,4.0817,54.0466,2024-02-12 15:44:49.452,4.0
-0.4468,0.114,-0.1453,23.4375,14.9231,45.5856,2024-02-12 15:44:49.468,4.0
-0.4407,0.0786,-0.147,18.2953,21.1258,39.7568,2024-02-12 15:44:49.492,4.0
-0.4709,0.0273,-0.1553,13.4506,22.995,36.1633,2024-02-12 15:44:49.508,4.0
-0.5625,-0.0432,-0.1357,14.595,25.2075,35.0494,2024-02-12 15:44:49.524,4.0
-0.7021,-0.0513,-0.0796,15.8844,29.9683,37.9181,2024-02-12 15:44:49.548,4.0
-0.7568,-0.0244,-0.0312,15.9531,27.6184,39.711,2024-02-12 15:44:49.564,4.0
-0.6426,0.082,-0.072,9.7809,24.559,32.2952,2024-02-12 15:44:49.580,4.0
-0.6472,0.2175,-0.0571,-0.2289,38.4293,19.455,2024-02-12 15:44:49.596,4.0
-0.7507,0.3071,-0.0242,-8.4534,51.8951,9.6436,2024-02-12 15:44:49.620,4.0
-0.9304,0.332,-0.0254,-13.4277,49.0112,3.3722,2024-02-12 15:44:49.637,4.0
-1.0957,0.2832,-0.0066,-14.4882,40.5579,2.0218,2024-02-12 15:44:49.653,4.0
-1.2476,0.2825,0.0415,-8.8806,28.2516,9.9106,2024-02-12 15:44:49.669,4.0
-1.186,0.1902,0.1211,1.6861,-16.3422,11.5433,2024-02-12 15:44:49.693,4.0
-0.9202,0.061,-0.0374,10.231,-61.7828,1.0834,2024-02-12 15:44:49.710,4.0
-0.8235,-0.1667,-0.5039,-2.2049,-43.3502,-16.0675,2024-02-12 15:44:49.726,4.0
-1.6831,0.5542,-0.23,-7.6141,65.2237,0.2594,2024-02-12 15:44:49.750,4.0
-1.1653,0.3879,-0.4482,-24.704,21.8811,-2.1133,2024-02-12 15:44:49.766,4.0
-1.1377,-0.0044,-0.262,-38.2462,-19.7449,-31.7459,2024-02-12 15:44:49.790,4.0
-0.8672,-0.0625,-0.4695,-32.1198,-60.0891,-33.1345,2024-02-12 15:44:49.798,4.0
-0.5203,-0.2007,-0.4209,-43.8385,-82.5043,-40.3519,2024-02-12 15:44:49.814,4.0
-0.6147,-0.0686,-0.2678,-38.3987,-41.1224,-50.293,2024-02-12 15:44:49.846,4.0
-0.728,0.0671,-0.2856,-40.9393,7.309,-48.1491,2024-02-12 15:44:49.862,4.0
-0.8091,0.0298,-0.3147,-55.7938,16.8839,-43.9377,2024-02-12 15:44:49.878,4.0
-0.8972,-0.1045,-0.2556,-72.2122,-8.5373,-46.6232,2024-02-12 15:44:49.894,4.0
-0.8914,-0.1865,-0.1057,-75.3937,-41.5649,-46.3486,2024-02-12 15:44:49.918,4.0
-0.7168,-0.2471,0.0002,-72.5632,-70.015,-47.2412,2024-02-12 15:44:49.927,4.0
-0.5754,-0.2566,0.0828,-63.5834,-74.4858,-47.9279,2024-02-12 15:44:49.951,4.0
-0.4243,-0.2485,-0.0117,-54.3594,-60.3256,-48.4238,2024-02-12 15:44:49.967,4.0
-0.3711,-0.1948,-0.0876,-50.827,-39.8178,-52.3605,2024-02-12 15:44:49.991,4.0
-0.4141,-0.1252,-0.0937,-51.4297,-25.3067,-55.1758,2024-02-12 15:44:50.024,4.0
-0.5144,-0.0591,-0.0537,-51.2085,-15.274,-55.8319,2024-02-12 15:44:50.024,4.0
-0.5693,-0.0662,-0.0718,-50.7126,-10.4294,-54.3747,2024-02-12 15:44:50.040,4.0
-0.6096,-0.1509,-0.0654,-51.5366,-11.3831,-49.7971,2024-02-12 15:44:50.056,4.0
-0.6182,-0.2334,-0.0183,-50.0336,-14.8315,-45.5399,2024-02-12 15:44:50.080,4.0
-0.6641,-0.2583,0.0088,-45.1431,-15.2359,-41.832,2024-02-12 15:44:50.096,4.0
-0.6843,-0.2754,0.0127,-39.8483,-12.1307,-36.7661,2024-02-12 15:44:50.112,4.0
-0.7434,-0.2922,0.0659,-34.0881,-7.6981,-34.7061,2024-02-12 15:44:50.136,4.0
-0.8059,-0.3123,0.0896,-26.3824,-4.9896,-29.3503,2024-02-12 15:44:50.153,4.0
-0.8,-0.342,0.094,-17.9977,-7.7515,-23.3383,2024-02-12 15:44:50.172,4.0
-0.79,-0.3704,0.1494,-9.6207,-8.0872,-15.7318,2024-02-12 15:44:50.189,4.0
-0.7688,-0.3694,0.1938,-3.54,-2.6321,-10.0479,2024-02-12 15:44:50.205,4.0
-0.8003,-0.3423,0.1882,1.0834,6.6986,-4.2343,2024-02-12 15:44:50.229,4.0
-0.8496,-0.2939,0.1677,1.8234,13.176,-0.679,2024-02-12 15:44:50.245,4.0
-0.9399,-0.2173,0.155,-2.0752,12.6266,3.6469,2024-02-12 15:44:50.261,4.0
-0.9841,-0.1948,0.2424,-4.7302,4.9896,6.7444,2024-02-12 15:44:50.285,4.0
-0.8049,-0.3391,-0.1367,8.9035,10.91,1.0376,2024-02-12 15:44:50.301,4.0
-1.175,-0.4392,0.4888,-10.2921,19.9966,-39.093,2024-02-12 15:44:50.317,4.0
-1.2612,-0.8323,0.2871,52.7802,50.56,-60.7758,2024-02-12 15:44:50.342,4.0
-1.6997,-0.6016,-0.2075,54.4815,45.6467,-33.4854,2024-02-12 15:44:50.358,4.0
-1.3965,-0.1042,-0.0427,32.6004,-13.9236,22.4838,2024-02-12 15:44:50.374,4.0
-0.6948,-0.2375,-0.0723,25.2609,-6.7291,37.1017,2024-02-12 15:44:50.390,4.0
-0.5779,-0.2581,-0.1438,20.9808,29.3045,22.4228,2024-02-12 15:44:50.406,4.0
-0.6919,-0.3044,-0.1572,22.316,62.8586,20.3705,2024-02-12 15:44:50.430,4.0
-0.7646,-0.3074,-0.106,26.4053,78.4454,18.7607,2024-02-12 15:44:50.446,4.0
-0.9138,-0.3198,-0.1262,26.3214,79.2313,21.1487,2024-02-12 15:44:50.463,4.0
-1.0149,-0.3459,-0.116,24.2462,58.4717,33.7677,2024-02-12 15:44:50.487,4.0
-1.0088,-0.3196,-0.0557,25.5203,30.2429,44.6548,2024-02-12 15:44:50.503,4.0
-0.9231,-0.241,-0.0393,30.8685,-0.618,50.3235,2024-02-12 15:44:50.523,4.0
-0.8357,-0.1179,-0.0569,32.5775,-25.3601,53.5355,2024-02-12 15:44:50.540,4.0
-0.7087,-0.0032,0.0295,29.4571,-30.5786,53.2074,2024-02-12 15:44:50.565,4.0
-0.5925,0.0432,-0.0918,23.5291,-13.0997,52.5742,2024-02-12 15:44:50.581,4.0
-0.4502,0.0771,-0.1899,10.0327,8.4305,51.0254,2024-02-12 15:44:50.597,4.0
-0.3728,0.0532,-0.1028,-3.212,20.195,43.5867,2024-02-12 15:44:50.613,4.0
-0.397,0.0227,-0.0542,-9.8343,33.4015,33.3939,2024-02-12 15:44:50.643,4.0
-0.4658,0.0151,-0.1028,-15.0528,51.5976,30.8228,2024-02-12 15:44:50.651,4.0
-0.5886,0.022,-0.0842,-22.0871,64.3768,29.2206,2024-02-12 15:44:50.667,4.0
-0.762,0.0068,-0.082,-26.8326,60.1578,30.7388,2024-02-12 15:44:50.691,4.0
-0.8528,0.0376,-0.0979,-33.6533,44.1284,35.4156,2024-02-12 15:44:50.707,4.0
-0.8916,0.0181,-0.0632,-38.7802,20.9351,40.2222,2024-02-12 15:44:50.723,4.0
-0.7927,0.0227,-0.0178,-37.0636,-3.6697,41.6565,2024-02-12 15:44:50.746,4.0
-0.6511,0.0422,-0.0537,-34.4086,-19.2719,31.189,2024-02-12 15:44:50.762,4.0
-0.5808,0.0642,-0.0112,-32.7835,-24.9939,18.1427,2024-02-12 15:44:50.779,4.0
-0.5703,0.0525,0.0371,-27.9312,-24.5209,7.1259,2024-02-12 15:44:50.803,4.0
-0.5798,0.0903,0.031,-25.2075,-21.2479,1.0147,2024-02-12 15:44:50.820,4.0
-0.6123,0.0969,0.0417,-26.3977,-15.274,-4.8828,2024-02-12 15:44:50.836,4.0
-0.6426,0.0864,0.1602,-27.4048,-15.6326,-11.4975,2024-02-12 15:44:50.852,4.0
-0.7751,0.1316,0.2739,-26.619,-18.3563,-15.2054,2024-02-12 15:44:50.877,4.0
-0.8726,0.1572,0.2788,-30.0369,-20.6604,-14.5721,2024-02-12 15:44:50.886,4.0
-0.9004,0.0952,0.239,-34.9121,-25.5661,-14.1449,2024-02-12 15:44:50.910,4.0
-0.8906,0.1299,0.3008,-34.7672,-31.4102,-15.0909,2024-02-12 15:44:50.926,4.0
-0.8955,0.1641,0.1868,-31.4789,-20.874,-15.3885,2024-02-12 15:44:50.943,4.0
-0.9045,0.2368,-0.2625,-27.2141,11.5433,-16.1285,2024-02-12 15:44:50.967,4.0
-1.1804,0.2241,-0.5034,-39.0091,56.4804,-7.3166,2024-02-12 15:44:50.984,4.0
-1.4751,0.1155,-0.1758,-40.1688,58.5861,13.649,2024-02-12 15:44:51.000,4.0
-1.4685,0.189,-0.3508,-31.1508,10.7651,41.1377,2024-02-12 15:44:51.024,4.0
-0.823,0.1455,-0.48,-50.3387,-65.9332,16.2888,2024-02-12 15:44:51.040,4.0
-0.7217,0.0366,-0.3467,-45.8603,-82.8247,-0.6866,2024-02-12 15:44:51.056,4.0
-0.7271,-0.1335,-0.3611,-28.8467,-42.5339,-14.595,2024-02-12 15:44:51.080,4.0
-0.8801,-0.2705,-0.522,-29.2969,-8.5449,-18.4631,2024-02-12 15:44:51.096,4.0
-1.0701,-0.176,-0.3687,-37.3306,12.291,-9.7504,2024-02-12 15:44:51.112,4.0
-1.04,-0.0784,-0.134,-38.4369,4.4632,-6.134,2024-02-12 15:44:51.128,4.0
-0.9387,-0.0725,-0.0789,-45.8832,-24.5743,-21.2555,2024-02-12 15:44:51.144,4.0
-0.8337,-0.0952,-0.1238,-49.4232,-42.8162,-38.0936,2024-02-12 15:44:51.161,4.0
-0.7549,-0.0437,-0.2017,-55.6412,-44.7006,-48.3551,2024-02-12 15:44:51.178,4.0
-0.6814,0.0317,-0.1521,-65.2237,-33.1955,-60.2875,2024-02-12 15:44:51.203,4.0
-0.6812,0.0232,-0.103,-71.7316,-22.9797,-68.6188,2024-02-12 15:44:51.219,4.0
-0.6851,-0.0366,-0.0869,-77.0721,-25.238,-64.5905,2024-02-12 15:44:51.236,4.0
-0.6272,-0.1199,-0.0183,-83.8547,-31.2576,-57.2128,2024-02-12 15:44:51.261,4.0
-0.5554,-0.2075,0.0386,-87.8677,-34.462,-50.087,2024-02-12 15:44:51.286,4.0
-0.5107,-0.1946,0.0349,-90.1413,-23.468,-45.0211,2024-02-12 15:44:51.302,4.0
-0.5159,-0.1475,0.0344,-94.0094,-8.4152,-39.5813,2024-02-12 15:44:51.310,4.0
-0.5701,-0.0898,0.051,-99.0448,5.8212,-32.3792,2024-02-12 15:44:51.335,4.0
-0.6487,-0.1108,0.0652,-100.6775,13.7177,-24.9634,2024-02-12 15:44:51.352,4.0
-0.6985,-0.1636,0.0708,-99.472,19.8975,-14.4653,2024-02-12 15:44:51.369,4.0
-0.7097,-0.1853,0.1379,-96.0236,18.1427,1.1444,2024-02-12 15:44:51.393,4.0
-0.7065,-0.2087,0.249,-87.8448,19.7983,8.9188,2024-02-12 15:44:51.410,4.0
-0.7612,-0.2041,0.2922,-79.1321,27.3972,11.4136,2024-02-12 15:44:51.427,4.0
-0.8306,-0.1562,0.3127,-68.2983,27.9999,10.6964,2024-02-12 15:44:51.443,4.0
-0.8796,-0.3049,0.3208,-59.7305,11.5051,1.0376,2024-02-12 15:44:51.467,4.0
-0.9585,-0.2942,0.1619,-44.2047,0.8087,-11.4822,2024-02-12 15:44:51.483,4.0
-0.9705,-0.2039,0.0532,-34.935,-8.1482,-26.5198,2024-02-12 15:44:51.507,4.0
-1.0085,-0.1345,0.1279,-29.1977,-16.5329,-39.8865,2024-02-12 15:44:51.524,4.0
-1.1245,-0.1389,0.3743,-35.6979,-17.7536,-36.0641,2024-02-12 15:44:51.540,4.0
-1.0649,-0.1497,0.2527,-38.8107,-20.3552,-22.85,2024-02-12 15:44:51.556,4.0
-0.9905,-0.1021,-0.0471,-47.8592,-22.6288,-21.5378,2024-02-12 15:44:51.581,4.0
-1.0557,-0.0923,-0.0811,-55.2521,-16.449,-42.2974,2024-02-12 15:44:51.589,4.0
-1.1372,-0.3835,-0.1306,-45.7077,-11.6882,-67.8101,2024-02-12 15:44:51.613,4.0
-1.1958,-0.3811,-0.3599,-16.3879,-14.4577,-57.2968,2024-02-12 15:44:51.638,4.0
-1.1189,-0.145,-0.5151,-39.3677,-43.6859,-42.9306,2024-02-12 15:44:51.646,4.0
-0.9785,-0.0244,-0.1882,-59.9823,-83.0078,-6.0349,2024-02-12 15:44:51.673,4.0
-0.5601,-0.0176,-0.229,-64.3692,-77.5528,21.8887,2024-02-12 15:44:51.693,4.0
-0.5125,0.052,-0.2341,-69.603,-23.9792,19.5847,2024-02-12 15:44:51.710,4.0
-0.76,0.092,-0.127,-69.1528,33.3786,21.3394,2024-02-12 15:44:51.726,4.0
-0.9873,-0.0769,-0.0159,-59.7534,63.179,15.274,2024-02-12 15:44:51.742,4.0
-1.2488,-0.2109,-0.0723,-47.5464,46.2646,17.3264,2024-02-12 15:44:51.766,4.0
-1.2324,-0.2146,-0.0608,-44.4946,-19.455,34.9121,2024-02-12 15:44:51.782,4.0
-1.0283,-0.1753,-0.0364,-38.6276,-66.452,46.6385,2024-02-12 15:44:51.806,4.0
-0.7207,-0.1438,-0.1274,-37.2086,-59.4864,49.9802,2024-02-12 15:44:51.814,4.0
-0.5476,-0.0876,-0.0554,-33.9355,-28.1448,45.7916,2024-02-12 15:44:51.839,4.0
-0.5051,-0.0432,0.0244,-33.4244,-7.225,37.1399,2024-02-12 15:44:51.855,4.0
-0.5337,-0.0198,0.0632,-30.4947,1.6022,30.0369,2024-02-12 15:44:51.871,4.0
-0.5933,-0.0027,0.0217,-25.0015,7.0114,25.0626,2024-02-12 15:44:51.897,4.0
