acceleration_x,acceleration_y,acceleration_z,gyroscope_x,gyroscope_y,gyroscope_z,timestamp,label
-0.823,-0.0349,-0.1274,-18.0359,-9.9106,2.6855,2024-02-12 15:41:23.000,0.0
-0.7734,0.001,-0.1299,-20.2484,-6.485,1.5106,2024-02-12 15:41:23.016,0.0
-0.7786,0.0247,-0.0908,-22.1863,-2.0599,-2.2888,2024-02-12 15:41:23.032,0.0
-0.7952,-0.0159,-0.061,-23.8953,1.8921,-5.6992,2024-02-12 15:41:23.048,0.0
-0.8123,-0.0339,-0.073,-24.2081,4.2572,-8.255,2024-02-12 15:41:23.064,0.0
-0.8352,-0.0461,-0.093,-25.2914,4.2419,-7.9727,2024-02-12 15:41:23.084,0.0
-0.8391,-0.0327,-0.0935,-26.123,3.8986,-6.6452,2024-02-12 15:41:23.101,0.0
-0.8608,-0.0361,-0.0659,-26.4359,1.976,-3.9291,2024-02-12 15:41:23.118,0.0
-0.8635,-0.0542,-0.0632,-26.2604,-3.5629,-0.2823,2024-02-12 15:41:23.142,0.0
-0.844,-0.0513,-0.0696,-25.65,-7.2861,1.6174,2024-02-12 15:41:23.158,0.0
-0.8225,-0.0227,-0.0649,-25.2533,-8.728,2.4948,2024-02-12 15:41:23.174,0.0
-0.8103,-0.011,-0.0757,-24.3607,-5.7678,1.9302,2024-02-12 15:41:23.190,0.0
-0.793,0.0017,-0.1138,-24.5667,-0.6256,1.152,2024-02-12 15:41:23.218,0.0
-0.8032,0.0276,-0.1301,-26.123,4.0512,-0.4578,2024-02-12 15:41:23.235,0.0
-0.8171,0.0256,-0.1577,-28.6102,7.3776,-1.5488,2024-02-12 15:41:23.243,0.0
-0.8333,0.03,-0.1331,-32.8369,8.7662,-1.8845,2024-02-12 15:41:23.267,0.0
-0.8435,0.0425,-0.1211,-35.7513,6.7902,-2.4796,2024-02-12 15:41:23.283,0.0
-0.8523,0.0166,-0.1108,-38.8031,4.4403,-2.1515,2024-02-12 15:41:23.299,0.0
-0.8486,-0.002,-0.0793,-39.1922,3.006,-1.4877,2024-02-12 15:41:23.324,0.0
-0.8396,0.0085,-0.0444,-39.1464,0.5875,-0.8774,2024-02-12 15:41:23.341,0.0
-0.8357,0.0168,-0.0369,-38.1546,-2.1439,0.1755,2024-02-12 15:41:23.363,0.0
-0.8286,0.0288,-0.0308,-36.6211,-6.073,1.0452,2024-02-12 15:41:23.372,0.0
-0.8181,0.0452,-0.0396,-37.9486,-8.3237,0.6866,2024-02-12 15:41:23.396,0.0
-0.7996,0.0432,-0.0146,-38.1317,-10.7956,-2.8229,2024-02-12 15:41:23.413,0.0
-0.7839,0.0583,-0.0295,-38.1393,-10.5286,-4.6234,2024-02-12 15:41:23.429,0.0
-0.7632,0.0449,-0.0654,-41.4963,-11.7493,-8.8654,2024-02-12 15:41:23.445,0.0
-0.7695,0.0356,-0.0874,-45.517,-10.437,-12.001,2024-02-12 15:41:23.462,0.0
-0.8052,0.0129,-0.0803,-49.5529,-10.2768,-14.3814,2024-02-12 15:41:23.486,0.0
-0.8398,0.0044,-0.0591,-49.7131,-11.3907,-13.3667,2024-02-12 15:41:23.497,0.0
-0.8811,0.0669,-0.0642,-47.1954,-9.552,-4.9591,2024-02-12 15:41:23.521,0.0
-0.8652,0.0603,-0.071,-47.2794,-8.1711,1.9302,2024-02-12 15:41:23.546,0.0
-0.8157,-0.0496,-0.0542,-46.5469,-10.6049,-2.2964,2024-02-12 15:41:23.554,0.0
-0.8633,-0.1001,-0.0337,-40.0009,-10.9482,-11.8103,2024-02-12 15:41:23.570,0.0
-0.9131,-0.1179,-0.0723,-36.0336,-16.8228,-15.3122,2024-02-12 15:41:23.597,0.0
-0.9119,-0.0977,-0.0706,-34.3781,-25.5051,-11.9476,2024-02-12 15:41:23.613,0.0
-0.8232,-0.1189,-0.0586,-33.4702,-26.4664,-10.2463,2024-02-12 15:41:23.629,0.0
-0.741,-0.1355,0.0156,-30.6396,-16.2048,-12.4893,2024-02-12 15:41:23.645,0.0
-0.7456,-0.1443,0.0896,-26.123,8.4076,-19.7525,2024-02-12 15:41:23.662,0.0
-0.8496,-0.1494,0.115,-25.2457,23.8571,-24.437,2024-02-12 15:41:23.687,0.0
-0.9619,-0.198,0.1399,-22.1634,27.0844,-24.6429,2024-02-12 15:41:23.703,0.0
-1.001,-0.2261,0.0928,-15.48,13.5574,-23.0637,2024-02-12 15:41:23.719,0.0
-1.009,-0.2322,0.0544,-12.1078,-9.9716,-19.0887,2024-02-12 15:41:23.736,0.0
-0.908,-0.2739,0.0701,-11.6806,-30.983,-11.4212,2024-02-12 15:41:23.752,0.0
-0.769,-0.251,0.1177,-11.5128,-36.6745,-7.0801,2024-02-12 15:41:23.769,0.0
-0.6548,-0.1873,0.1121,-11.7416,-23.1094,-6.9275,2024-02-12 15:41:23.793,0.0
-0.6572,-0.1199,0.1045,-15.7242,-10.3073,-9.6512,2024-02-12 15:41:23.809,0.0
-0.7471,-0.0557,0.1111,-22.0642,-4.1351,-8.3694,2024-02-12 15:41:23.833,0.0
-0.8301,-0.0032,0.1494,-26.3977,-4.9744,-1.4038,2024-02-12 15:41:23.841,0.0
-0.8652,0.0105,0.1558,-28.4576,-9.8801,9.0332,2024-02-12 15:41:23.865,0.0
-0.8157,-0.0325,0.0964,-27.6337,-13.0692,16.2659,2024-02-12 15:41:23.882,0.0
-0.688,-0.3186,-0.2734,-14.3356,17.6468,6.8207,2024-02-12 15:41:23.901,0.0
-0.9343,-0.0647,-0.2849,-2.8915,44.4336,-28.3356,2024-02-12 15:41:23.917,0.0
-1.0466,-0.1057,0.3909,-10.8948,-1.2131,-42.0532,2024-02-12 15:41:23.941,0.0
-1.1462,-0.1421,0.1428,5.4321,-23.735,-39.4897,2024-02-12 15:41:23.958,0.0
-1.0396,-0.1379,-0.2917,-2.121,-54.8401,-9.9335,2024-02-12 15:41:23.974,0.0
-0.5952,-0.1079,-0.2517,-21.8048,-77.2629,3.2272,2024-02-12 15:41:23.998,0.0
-0.4402,-0.0664,-0.0305,-22.0871,-43.0527,-6.2485,2024-02-12 15:41:24.015,0.0
-0.5603,-0.0798,0.0435,-13.0386,16.9754,-22.3923,2024-02-12 15:41:24.031,0.0
-0.9082,-0.1575,-0.0305,0.5798,46.9742,-31.7917,2024-02-12 15:41:24.047,0.0
-1.125,-0.1333,-0.198,2.8152,34.5001,-18.219,2024-02-12 15:41:24.063,0.0
-1.0742,-0.0498,-0.2319,-7.1106,2.1439,1.9989,2024-02-12 15:41:24.080,0.0
-0.8564,0.0132,-0.1453,-10.5057,-18.3945,12.6724,2024-02-12 15:41:24.104,0.0
-0.6851,0.0481,-0.1201,-12.3138,-5.7983,12.7792,2024-02-12 15:41:24.121,0.0
-0.6277,0.0151,-0.095,-13.7711,24.437,4.1351,2024-02-12 15:41:24.137,0.0
-0.7583,-0.0474,-0.01,-12.9013,49.0189,-3.4409,2024-02-12 15:41:24.162,0.0
-0.8984,-0.0759,0.0847,-9.1934,49.53,-6.0043,2024-02-12 15:41:24.178,0.0
-1.0549,-0.0798,0.1404,-1.6708,33.3481,0.3433,2024-02-12 15:41:24.194,0.0
-1.0454,-0.041,0.0828,4.0054,14.801,11.8713,2024-02-12 15:41:24.218,0.0
-0.8943,0.022,0.0076,2.9144,1.915,16.8457,2024-02-12 15:41:24.234,0.0
-0.8052,0.0703,0.0237,-0.6638,2.2354,13.5193,2024-02-12 15:41:24.250,0.0
-0.8008,0.0605,0.0542,-2.5253,10.7269,10.4218,2024-02-12 15:41:24.266,0.0
-0.8318,0.0354,0.0515,-3.2425,13.7787,8.5068,2024-02-12 15:41:24.282,0.0
-0.8362,0.0173,0.0508,-2.4643,6.5155,6.7139,2024-02-12 15:41:24.306,0.0
-0.7957,0.0095,0.0701,-0.2289,0.5112,4.3793,2024-02-12 15:41:24.323,0.0
-0.7791,-0.0237,0.0942,3.9978,-0.3738,1.1215,2024-02-12 15:41:24.340,0.0
-0.7822,-0.0745,0.1125,9.2392,-0.9308,-2.739,2024-02-12 15:41:24.357,0.0
-0.7925,-0.1255,0.1301,15.6326,-4.2267,-6.6299,2024-02-12 15:41:24.381,0.0
-0.8059,-0.1367,0.0967,23.3459,-11.2152,-10.2539,2024-02-12 15:41:24.405,0.0
-0.8354,0.0012,-0.2524,28.511,-0.1602,-6.7673,2024-02-12 15:41:24.413,0.0
-1.0046,-0.0735,-0.5305,10.9711,28.6865,-4.4403,2024-02-12 15:41:24.437,0.0
-1.1616,0.0562,-0.1489,1.7853,16.7923,13.3438,2024-02-12 15:41:24.454,0.0
-1.0161,-0.02,0.1052,9.6283,-10.0174,25.3372,2024-02-12 15:41:24.470,0.0
-0.8267,-0.1206,-0.0447,20.401,-25.6348,24.4446,2024-02-12 15:41:24.487,0.0
-0.5886,-0.1545,-0.083,21.8887,-42.5415,12.3901,2024-02-12 15:41:24.503,0.0
-0.5293,-0.1797,0.0674,29.0756,-27.7939,2.2888,2024-02-12 15:41:24.527,0.0
-0.5916,-0.1135,0.1113,39.3448,2.8992,-5.3635,2024-02-12 15:41:24.543,0.0
-0.8154,-0.0537,-0.0972,37.6282,30.7159,-6.279,2024-02-12 15:41:24.559,0.0
-1.0742,-0.0522,-0.1499,29.747,42.3355,0.6485,2024-02-12 15:41:24.580,0.0
-1.0737,-0.0852,-0.0549,26.8631,4.6234,5.6458,2024-02-12 15:41:24.597,0.0
-0.9609,-0.1584,-0.0103,30.5557,-36.8881,7.2556,2024-02-12 15:41:24.613,0.0
-0.7551,-0.147,-0.0386,34.523,-39.8865,4.9744,2024-02-12 15:41:24.635,0.0
-0.6643,-0.1001,-0.0703,35.2783,-18.0054,2.6627,2024-02-12 15:41:24.659,0.0
-0.6418,-0.0486,-0.1072,33.1573,5.3864,1.2131,2024-02-12 15:41:24.675,0.0
-0.7754,-0.0088,-0.0764,28.2745,21.8353,0.4349,2024-02-12 15:41:24.701,0.0
-0.9307,-0.0059,-0.0752,22.2321,18.6234,2.3727,2024-02-12 15:41:24.709,0.0
-0.9827,-0.0127,-0.0854,16.0141,4.0512,3.83,2024-02-12 15:41:24.717,0.0
-0.9146,-0.0022,-0.0889,8.4076,-14.4043,3.5858,2024-02-12 15:41:24.741,0.0
-0.842,0.0293,-0.0701,2.594,-19.7372,1.9226,2024-02-12 15:41:24.757,0.0
-0.7976,0.0486,-0.0603,-2.8458,-16.9373,-0.7629,2024-02-12 15:41:24.773,0.0
-0.7954,0.0291,-0.0747,-9.1324,-12.1918,-2.4948,2024-02-12 15:41:24.798,0.0
-0.8247,-0.0024,-0.0854,-14.2136,-11.6348,-1.6327,2024-02-12 15:41:24.814,3.0
-0.8293,-0.0337,-0.0659,-18.8828,-13.8931,0.9995,2024-02-12 15:41:24.830,3.0
-0.7939,-0.043,-0.0508,-20.7062,-11.5662,0.9918,2024-02-12 15:41:24.855,3.0
-0.7949,-0.0156,-0.0435,-21.3776,-3.9139,-0.412,2024-02-12 15:41:24.871,3.0
-0.8215,0.0039,-0.0645,-22.6974,0.946,-2.037,2024-02-12 15:41:24.879,3.0
-0.8677,0.001,-0.0637,-24.7345,-2.388,-2.2354,2024-02-12 15:41:24.904,3.0
-0.8691,-0.0295,-0.0264,-25.0702,-8.5144,-1.2817,2024-02-12 15:41:24.921,3.0
-0.8181,-0.0583,0.0146,-22.3923,-13.7939,-0.267,2024-02-12 15:41:24.944,3.0
-0.7676,-0.0979,0.0896,-17.1585,-7.8125,-1.3809,2024-02-12 15:41:24.961,3.0
-0.7534,-0.1201,0.1216,-10.5438,2.533,-2.655,2024-02-12 15:41:24.976,3.0
-0.7773,-0.1357,0.1157,-3.1891,14.3127,-4.1199,2024-02-12 15:41:25.001,3.0
-0.8232,-0.1526,0.1025,2.243,21.0648,-4.1504,2024-02-12 15:41:25.017,3.0
-0.8572,-0.1631,0.1357,9.285,24.1776,-2.0065,2024-02-12 15:41:25.033,3.0
-0.8867,-0.1665,0.1416,16.9449,22.7509,1.358,2024-02-12 15:41:25.049,3.0
-0.8984,-0.1829,0.1345,22.1176,19.8135,4.2191,2024-02-12 15:41:25.071,3.0
-0.8911,-0.1748,0.0913,25.7034,15.9836,6.1111,2024-02-12 15:41:25.088,3.0
-0.8623,-0.1455,0.0723,28.1525,13.3591,7.225,2024-02-12 15:41:25.104,3.0
-0.8159,-0.1089,0.0469,29.3655,12.3672,5.6915,2024-02-12 15:41:25.128,3.0
-0.8086,-0.0862,0.0615,30.098,15.1062,3.1891,2024-02-12 15:41:25.144,3.0
-0.8206,-0.0764,0.0627,29.7775,17.5781,1.6174,2024-02-12 15:41:25.169,3.0
-0.8489,-0.0527,0.032,28.4042,17.3645,0.6104,2024-02-12 15:41:25.178,3.0
-0.877,-0.0383,0.0029,25.6119,13.1836,0.4883,2024-02-12 15:41:25.194,3.0
-0.8735,-0.0361,-0.0022,23.262,7.9575,-0.0687,2024-02-12 15:41:25.227,3.0
-0.8716,-0.0386,-0.0217,21.9803,4.0741,0.1602,2024-02-12 15:41:25.235,3.0
-0.8381,-0.0532,-0.0364,20.3857,0.679,0.061,2024-02-12 15:41:25.251,3.0
-0.8367,-0.0864,-0.0051,20.3094,0.9537,-0.0381,2024-02-12 15:41:25.268,3.0
-0.8474,-0.106,0.0286,23.056,2.6627,-0.145,2024-02-12 15:41:25.292,3.0
-0.8523,-0.1282,0.0012,26.8097,0.8469,-0.618,2024-02-12 15:41:25.308,3.0
-0.8413,-0.127,-0.0381,30.7922,-3.1281,0.0,2024-02-12 15:41:25.367,3.0
-0.8025,-0.1025,-0.0627,31.2347,-4.1885,-0.206,2024-02-12 15:41:25.367,3.0
-0.7913,-0.0908,-0.0154,33.2489,-2.388,-0.9155,2024-02-12 15:41:27.581,3.0
-0.7888,-0.0442,-0.0273,36.5982,2.655,-0.412,2024-02-12 15:41:27.581,3.0
-0.8054,-0.054,-0.0156,38.6734,6.5308,-0.5341,2024-02-12 15:41:27.589,3.0
-0.8171,-0.0881,-0.031,41.4352,8.4991,0.0916,2024-02-12 15:41:27.589,3.0
-0.8008,-0.0774,-0.0813,42.1219,8.8806,0.824,2024-02-12 15:41:27.589,3.0
-0.7644,-0.0723,-0.1182,39.1769,10.6812,-1.2665,2024-02-12 15:41:27.589,3.0
-0.8843,0.021,-0.0449,21.2555,9.3918,-6.1264,2024-02-12 15:41:27.589,3.0
-0.8848,0.0374,-0.0281,16.0294,4.9591,-6.7215,2024-02-12 15:41:27.589,3.0
-0.8569,0.0464,-0.0266,10.7346,0.4272,-5.1956,2024-02-12 15:41:27.838,3.0
-0.8345,-0.2227,0.1626,-28.2745,0.5722,-9.6817,2024-02-12 15:41:27.838,3.0
-0.9587,-0.2634,0.2476,-22.2168,10.2692,-17.6086,2024-02-12 15:41:27.846,3.0
-1.0217,-0.2405,0.3057,-13.0157,8.8043,-18.7759,2024-02-12 15:41:27.863,3.0
-0.9995,-0.1367,0.3613,-11.1313,-7.4997,-18.0359,2024-02-12 15:41:27.879,3.0
-0.9133,-0.1116,0.4219,-11.3449,-12.1384,-16.9144,2024-02-12 15:41:27.895,3.0
-0.6526,-0.4722,0.1782,-14.2212,11.6043,-25.3677,2024-02-12 15:41:27.936,3.0
-0.7454,-0.4707,0.0547,-7.9193,69.0689,-53.3524,2024-02-12 15:41:27.952,3.0
-1.0583,-0.4583,0.0642,3.479,79.1626,-86.1511,2024-02-12 15:41:27.952,3.0
-1.4231,-0.5994,0.0073,16.2964,62.4695,-101.2497,2024-02-12 15:41:27.968,3.0
-1.6982,-0.5972,-0.1641,60.5087,8.2016,-61.7371,2024-02-12 15:41:27.985,3.0
-1.2302,-0.3557,-0.4868,52.1088,-64.3387,-14.7552,2024-02-12 15:41:28.000,3.0
-0.8596,-0.2625,-0.4592,27.3895,-93.8873,18.7225,2024-02-12 15:41:28.017,3.0
-0.4885,-0.1426,-0.4185,6.9733,-68.2297,42.2058,2024-02-12 15:41:28.041,3.0
-0.3696,0.0522,-0.3699,-6.2103,-7.2098,23.9105,2024-02-12 15:41:28.057,3.0
-0.7632,0.2131,-0.2305,-18.5471,46.8445,-10.704,2024-02-12 15:41:28.081,3.0
-1.1406,0.1377,-0.1907,-14.1449,66.5131,-7.2861,2024-02-12 15:41:28.098,3.0
-1.2234,0.0076,-0.3362,-18.7378,52.1317,15.77,2024-02-12 15:41:28.117,3.0
-0.9875,-0.0562,-0.2866,-34.1873,6.3705,38.2462,2024-02-12 15:41:28.141,3.0
-0.6807,-0.1748,-0.1687,-37.8113,-16.0599,45.0516,2024-02-12 15:41:28.149,3.0
-0.5664,-0.2693,-0.1489,-32.9132,4.2496,46.051,2024-02-12 15:41:28.165,3.0
-0.5952,-0.2993,-0.0896,-23.3002,43.8538,46.9666,2024-02-12 15:41:28.182,3.0
-0.6958,-0.2754,-0.1257,-16.1057,53.1998,48.0957,2024-02-12 15:41:28.199,3.0
-0.8547,-0.1804,-0.0264,-9.8801,23.7885,50.3006,2024-02-12 15:41:28.225,3.0
-0.8525,-0.1387,-0.0015,-2.8915,-19.2642,51.4526,2024-02-12 15:41:28.234,3.0
-0.688,-0.1045,-0.0535,2.1973,-51.3535,49.6063,2024-02-12 15:41:28.257,3.0
-0.5515,-0.0737,-0.061,4.8065,-54.6112,42.366,2024-02-12 15:41:28.273,3.0
-0.3635,0.0334,-0.0867,8.11,-32.7988,30.1285,2024-02-12 15:41:28.298,3.0
-0.3794,0.0693,0.0171,11.2457,-10.6125,15.5106,2024-02-12 15:41:28.309,3.0
-0.4182,0.0427,0.0937,15.2969,-3.2425,2.3727,2024-02-12 15:41:28.326,3.0
-0.4946,0.0066,0.1545,21.7361,-5.1193,-5.1193,2024-02-12 15:41:28.342,3.0
-0.5327,-0.0046,0.1562,31.4941,-3.1509,-9.6436,2024-02-12 15:41:28.358,3.0
-0.6946,0.0168,0.0881,43.5257,12.5427,-15.3885,2024-02-12 15:41:28.382,3.0
-0.8489,0.0212,0.0029,43.6249,15.0757,-19.7601,2024-02-12 15:41:28.407,3.0
-1.0808,-0.0889,0.104,39.1922,-1.2436,-17.6392,2024-02-12 15:41:28.423,3.0
-1.1711,-0.1372,0.1748,34.996,-18.8217,-7.9422,2024-02-12 15:41:28.439,3.0
-1.1685,0.1738,0.1399,33.5999,-5.3864,10.1624,2024-02-12 15:41:28.464,3.0
-1.0388,0.2871,-0.0066,24.3073,10.5133,15.213,2024-02-12 15:41:28.472,3.0
-0.9414,0.2891,0.0344,8.9111,-7.5531,11.879,2024-02-12 15:41:28.496,3.0
-0.8596,0.1875,0.3054,3.1662,-26.4587,12.1384,2024-02-12 15:41:28.512,3.0
-0.8643,0.2991,0.1611,19.0201,16.1438,22.8195,2024-02-12 15:41:28.529,3.0
-1.074,0.1802,-0.2566,19.516,98.4497,24.1928,2024-02-12 15:41:28.554,3.0
-1.6211,0.1553,-0.5483,7.7133,130.2261,42.8391,2024-02-12 15:41:28.562,3.0
-1.6357,-0.0195,-0.6555,-13.3133,48.7671,74.9588,2024-02-12 15:41:28.578,3.0
-1.1414,-0.1245,-0.5066,-22.9797,-80.246,68.5043,2024-02-12 15:41:28.602,3.0
-0.6287,-0.2632,-0.4028,-14.6561,-154.6478,46.3791,2024-02-12 15:41:28.618,3.0
-0.3806,-0.1519,-0.2222,-5.1193,-112.6709,32.6538,2024-02-12 15:41:28.634,3.0
-0.384,-0.0889,-0.009,1.1597,-19.4016,10.9863,2024-02-12 15:41:28.650,3.0
-0.6248,-0.0972,-0.0142,12.7411,53.9246,-24.7955,2024-02-12 15:41:28.675,3.0
-1.0273,-0.1899,-0.415,6.4926,80.2994,-51.4297,2024-02-12 15:41:28.691,3.0
-1.4463,-0.2402,-0.3098,-9.3613,41.1224,-44.2886,2024-02-12 15:41:28.707,3.0
-1.2751,-0.1143,-0.1306,-18.3029,-57.6248,-33.2794,2024-02-12 15:41:28.724,3.0
-0.8193,0.0845,-0.1592,-30.1819,-110.2829,-37.9181,2024-02-12 15:41:28.749,3.0
-0.4792,0.106,-0.1538,-34.5459,-84.6481,-45.5856,2024-02-12 15:41:28.783,3.0
-0.3027,0.0735,-0.1067,-35.6216,-37.6434,-53.7643,2024-02-12 15:41:28.783,3.0
-0.3105,0.0037,-0.0667,-37.1933,1.0681,-58.1818,2024-02-12 15:41:28.800,3.0
-0.4526,-0.1172,-0.041,-40.0467,27.3438,-58.1512,2024-02-12 15:41:28.816,3.0
-0.6382,-0.2297,0.0244,-37.8113,21.5378,-56.2057,2024-02-12 15:41:28.840,3.0
-0.7615,-0.2542,0.0408,-30.6702,-13.7482,-43.7088,2024-02-12 15:41:28.849,3.0
-0.6707,-0.2288,0.0364,-25.3754,-54.7333,-29.3808,2024-02-12 15:41:28.874,3.0
-0.5669,-0.1562,0.1753,-18.5089,-63.4613,-17.2577,2024-02-12 15:41:28.890,3.0
-0.5081,-0.125,0.2104,-11.6348,-46.6995,-7.576,2024-02-12 15:41:28.931,3.0
-0.5667,-0.1067,0.2593,-6.0349,-24.0479,2.8,2024-02-12 15:41:28.955,3.0
-0.6968,-0.0808,0.2729,0.3891,-4.6921,13.2599,2024-02-12 15:41:28.955,3.0
-0.7605,-0.0889,0.1746,-0.0305,3.6545,24.0479,2024-02-12 15:41:28.963,3.0
-0.7334,-0.1355,0.1733,-2.8458,-5.8517,30.1971,2024-02-12 15:41:28.979,3.0
-0.6528,-0.1584,0.2134,-1.8539,-9.9564,28.6865,2024-02-12 15:41:28.997,3.0
-0.6262,-0.0952,0.2454,-2.7084,6.7368,11.7188,2024-02-12 15:41:29.022,3.0
-0.7397,-0.0664,0.0696,-11.116,42.244,-12.7106,2024-02-12 15:41:29.039,3.0
-1.0696,-0.1277,0.2139,-7.0419,58.3115,-26.535,2024-02-12 15:41:29.107,3.0
-1.2534,-0.085,0.2095,-7.4158,35.9497,-24.4293,2024-02-12 15:41:29.148,3.0
-1.3521,0.0911,0.2751,-22.5525,0.4349,-13.7405,2024-02-12 15:41:29.148,3.0
-1.1787,0.2209,0.3276,-37.1552,-15.5869,1.4267,2024-02-12 15:41:29.148,3.0
-0.905,0.2581,0.3743,-54.8019,-15.6174,2.4033,2024-02-12 15:41:29.148,3.0
-0.7371,0.1787,0.3267,-71.6095,-0.5569,-1.358,2024-02-12 15:41:29.156,3.0
-0.6523,-0.3884,0.1235,-87.9364,66.7572,-34.9655,2024-02-12 15:41:29.164,3.0
-1.0767,-0.3901,0.1284,-73.2422,117.4393,-80.5588,2024-02-12 15:41:29.172,3.0
-1.6309,-0.8,-0.1311,-44.2734,68.9545,-84.7778,2024-02-12 15:41:29.188,3.0
-1.613,-0.7258,-0.3337,-8.3466,-17.4561,-50.7431,2024-02-12 15:41:29.206,3.0
-1.1404,-0.5044,-0.6165,-7.7591,-102.0966,-14.267,2024-02-12 15:41:29.222,3.0
-0.5608,-0.0459,-0.5149,-35.8353,-119.8959,10.4141,2024-02-12 15:41:29.248,3.0
-0.2083,0.0154,-0.2239,-70.3735,-73.7991,23.8953,2024-02-12 15:41:29.266,3.0
-0.314,-0.0752,0.0459,-71.106,23.2697,11.5051,2024-02-12 15:41:29.282,3.0
-1.0027,0.1064,0.0171,-52.3987,94.9097,-11.0092,2024-02-12 15:41:29.298,3.0
-1.5256,0.0408,-0.2075,-44.1284,78.6896,7.9651,2024-02-12 15:41:29.316,3.0
-1.4919,-0.0559,-0.2654,-42.0456,8.7891,32.0358,2024-02-12 15:41:29.339,3.0
-1.1628,-0.0964,-0.0806,-41.0538,-65.7578,51.3229,2024-02-12 15:41:29.356,3.0
-0.7576,-0.2544,0.022,-29.0222,-85.8994,53.3752,2024-02-12 15:41:29.372,3.0
-0.4829,-0.3406,-0.0239,-15.3198,-54.2297,52.6505,2024-02-12 15:41:29.447,3.0
-0.4053,-0.3892,0.0439,0.9766,-14.4272,52.1927,2024-02-12 15:41:29.671,3.0
-0.4653,-0.2959,0.0842,13.176,12.7792,48.8586,2024-02-12 15:41:29.671,3.0
-0.5383,-0.1716,0.1238,23.14,21.7438,46.0205,2024-02-12 15:41:29.671,3.0
-0.6746,-0.115,0.1843,30.3421,9.5596,40.4282,2024-02-12 15:41:29.671,3.0
-0.6975,-0.095,0.1116,36.3922,-5.9586,37.4832,2024-02-12 15:41:29.675,3.0
-0.6143,-0.0425,0.0754,40.9164,-14.3661,35.1791,2024-02-12 15:41:29.676,3.0
-0.48,0.0425,0.0552,42.3126,-12.1155,27.7786,2024-02-12 15:41:29.676,3.0
-0.3481,0.1304,0.0405,42.8009,-4.57,17.4713,2024-02-12 15:41:29.676,3.0
-0.3574,0.2322,0.1018,45.5551,10.8414,6.8512,2024-02-12 15:41:29.684,3.0
-1.2183,0.1772,-0.0505,30.304,66.33,21.7896,2024-02-12 15:41:29.700,3.0
-1.3503,-0.0027,-0.2288,25.7797,65.7654,25.9705,2024-02-12 15:41:29.748,3.0
-1.6177,0.0413,-0.2439,28.4653,74.6536,38.1165,2024-02-12 15:41:29.748,3.0
-1.4817,0.1348,-0.5833,20.2637,37.0407,60.6842,2024-02-12 15:41:29.748,3.0
-1.1318,0.1731,-0.438,1.5564,-49.3622,54.657,2024-02-12 15:41:29.765,3.0
-0.8745,-0.0527,-0.0393,15.77,-102.3788,52.4139,2024-02-12 15:41:29.797,3.0
-0.4502,-0.1855,-0.1035,29.6326,-112.1597,36.5143,2024-02-12 15:41:29.805,3.0
-0.3235,-0.1667,-0.0676,31.7764,-67.6422,10.4828,2024-02-12 15:41:29.830,3.0
-0.4421,-0.1995,0.0552,38.2538,22.2092,-13.9465,2024-02-12 15:41:29.846,3.0
-0.7708,-0.2061,-0.0852,44.1971,82.3669,-37.4756,2024-02-12 15:41:29.854,3.0
-1.3037,-0.1533,-0.3604,40.2527,100.174,-41.2598,2024-02-12 15:41:29.872,3.0
-1.4673,-0.0637,-0.2847,28.7704,29.1214,-29.7775,2024-02-12 15:41:29.891,3.0
-1.3088,0.0017,-0.1462,17.662,-82.4509,-32.6538,2024-02-12 15:41:29.907,3.0
-0.9363,-0.0181,-0.135,12.1155,-129.8676,-30.3574,2024-02-12 15:41:29.924,3.0
-0.501,-0.0269,-0.064,6.8054,-110.5499,-35.3775,2024-02-12 15:41:29.946,3.0
-0.23,-0.0786,0.0244,4.9515,-62.1948,-47.9965,2024-02-12 15:41:29.963,3.0
-0.2158,-0.2087,0.0078,1.5335,-12.7182,-57.0602,2024-02-12 15:41:29.987,3.0
-0.415,-0.1846,0.0144,-1.2512,19.1956,-52.5665,2024-02-12 15:41:30.004,3.0
-0.5669,-0.179,-0.0137,-10.994,18.1274,-44.2276,2024-02-12 15:41:30.021,3.0
-0.6526,-0.1001,0.0305,-12.9776,-5.2948,-38.4598,2024-02-12 15:41:30.046,3.0
-0.6973,-0.071,0.0383,-19.6304,-25.3677,-24.2844,2024-02-12 15:41:30.063,3.0
-0.5991,-0.0996,0.134,-22.522,-25.1083,-5.9814,2024-02-12 15:41:30.080,3.0
-0.5359,-0.1282,0.2124,-20.668,-12.2375,6.2485,2024-02-12 15:41:30.096,3.0
-0.5732,-0.1311,0.2268,-17.395,7.988,16.1133,2024-02-12 15:41:30.113,3.0
-0.667,-0.0259,0.2419,-18.6157,24.147,23.1018,2024-02-12 15:41:30.130,3.0
-0.783,-0.0254,0.2852,-18.6996,27.8931,29.2664,2024-02-12 15:41:30.155,3.0
-0.8308,-0.1252,0.2815,-12.9166,18.3029,29.274,2024-02-12 15:41:30.163,3.0
-0.8948,-0.1306,0.2312,-11.5509,7.225,20.6375,2024-02-12 15:41:30.181,3.0
-0.866,-0.1965,0.0947,-11.3602,8.4991,11.1084,2024-02-12 15:41:30.205,3.0
-0.7964,-0.1577,0.0508,-10.231,26.535,-8.8272,2024-02-12 15:41:30.213,3.0
-0.9014,-0.1724,0.1948,-12.207,46.9666,-35.6369,2024-02-12 15:41:30.238,3.0
-1.1489,-0.2163,0.5232,-16.3651,47.554,-44.8303,2024-02-12 15:41:30.270,3.0
-1.1719,-0.2363,0.4099,-9.4376,44.0369,-34.5306,2024-02-12 15:41:30.270,3.0
-1.0601,-0.2944,0.199,-11.5814,69.191,-47.7753,2024-02-12 15:41:30.295,3.0
-1.2561,-0.3091,0.0142,-3.7613,75.5997,-79.1626,2024-02-12 15:41:30.321,3.0
-1.4189,-0.5889,-0.0752,-12.3138,46.5317,-93.7653,2024-02-12 15:41:30.329,3.0
-1.5044,-0.6785,0.0547,20.9045,6.6605,-92.9794,2024-02-12 15:41:30.345,3.0
-1.3215,-0.4507,-0.3635,49.8962,-58.876,-41.748,2024-02-12 15:41:30.362,3.0
-0.7805,-0.2424,-0.4067,16.0141,-99.9985,-5.0354,2024-02-12 15:41:30.387,3.0
-0.4578,-0.2144,-0.3975,-2.1057,-85.6628,24.4064,2024-02-12 15:41:30.403,3.0
-0.1897,-0.1021,-0.2986,-12.3901,-12.8021,21.553,2024-02-12 15:41:30.420,3.0
-0.5442,0.1326,-0.1445,-21.3852,63.2477,-7.6599,2024-02-12 15:41:30.436,3.0
-1.1475,0.1204,-0.0859,-16.6016,94.3146,-11.3602,2024-02-12 15:41:30.478,3.0
-1.4119,-0.0308,-0.2173,-10.0403,73.0972,8.8959,2024-02-12 15:41:30.478,3.0
-1.3931,-0.0796,-0.3162,-20.9732,12.2147,31.5323,2024-02-12 15:41:30.494,3.0
-1.1218,-0.2004,-0.1096,-23.9105,-52.3911,44.075,2024-02-12 15:41:30.502,3.0
-0.7866,-0.2749,0.0105,-13.4583,-68.9926,55.8624,2024-02-12 15:41:30.527,3.0
-0.5601,-0.1707,-0.0786,-5.7831,-42.1753,61.4014,2024-02-12 15:41:30.543,3.0
-0.4358,-0.0806,-0.0862,-2.6398,-5.7526,60.2798,2024-02-12 15:41:30.562,3.0
-0.4658,-0.0728,0.0178,0.412,12.6572,50.4456,2024-02-12 15:41:30.578,3.0
-0.6108,-0.0505,0.1018,8.2779,9.5291,46.7911,2024-02-12 15:41:30.594,3.0
-0.6611,-0.0811,0.0879,14.4196,-4.776,46.6461,2024-02-12 15:41:30.651,3.0
-0.6716,-0.1086,0.1436,21.4539,-17.6239,44.2047,2024-02-12 15:41:30.651,3.0
-0.5383,-0.0989,0.0867,31.3568,-24.0631,36.1099,2024-02-12 15:41:30.662,3.0
-0.4888,-0.0305,0.0867,38.6734,-21.5683,25.4669,2024-02-12 15:41:30.662,3.0
-0.3364,0.0386,-0.0144,43.2281,-9.1095,11.9553,2024-02-12 15:41:30.687,3.0
-0.3616,0.0564,0.0806,46.2036,3.2043,-0.145,2024-02-12 15:41:30.703,3.0
-0.4556,0.0486,0.2046,50.415,16.8304,-12.3978,2024-02-12 15:41:30.719,3.0
-0.5969,0.0513,0.248,55.7404,26.7563,-20.1111,2024-02-12 15:41:30.743,3.0
-0.7822,0.0513,0.1399,57.7316,33.0505,-23.0865,2024-02-12 15:41:30.760,3.0
-0.9338,0.0283,0.0447,53.0853,28.5263,-18.3105,2024-02-12 15:41:30.779,3.0
-0.9707,-0.0051,-0.0483,39.0778,9.1248,-11.8484,2024-02-12 15:41:30.795,3.0
-1.0283,0.0786,-0.0339,21.9574,20.2026,-6.6071,2024-02-12 15:41:30.859,3.0
-1.176,0.1592,0.1038,17.1356,50.148,-1.1292,2024-02-12 15:41:30.867,3.0
-1.2239,0.1946,0.1353,13.1226,43.663,8.2092,2024-02-12 15:41:30.899,3.0
-1.1538,0.1885,0.179,5.4398,12.558,12.146,2024-02-12 15:41:30.915,3.0
-1.186,0.29,0.0022,12.3596,33.577,20.3247,2024-02-12 15:41:30.923,3.0
-1.3752,0.1204,-0.166,7.309,80.307,25.032,2024-02-12 15:41:30.931,3.0
-1.6062,0.2043,-0.3772,3.2959,81.9397,50.7431,2024-02-12 15:41:30.931,3.0
-1.2573,0.1819,-0.6909,-26.1383,-1.0757,69.2673,2024-02-12 15:41:30.948,3.0
-1.0015,0.106,-0.3762,-38.4216,-83.2062,60.9818,2024-02-12 15:41:30.948,3.0
-0.562,-0.0923,-0.1292,-27.4124,-110.8246,53.2532,2024-02-12 15:41:33.111,3.0
-0.2053,-0.2488,-0.0811,-19.5084,-74.1882,13.0615,2024-02-12 15:41:33.111,3.0
-0.45,-0.2124,0.1655,-1.3046,14.1983,-23.0637,2024-02-12 15:41:33.111,3.0
-0.8269,-0.1904,0.0574,19.5084,67.215,-40.9164,2024-02-12 15:41:33.111,3.0
-1.2024,-0.1052,-0.2598,17.952,64.6667,-46.2265,2024-02-12 15:41:33.119,3.0
-1.4607,-0.0815,-0.4214,2.4338,30.159,-37.2543,2024-02-12 15:41:33.120,3.0
-1.3806,-0.123,-0.1216,-6.8741,-47.2488,-30.1437,2024-02-12 15:41:33.120,3.0
-1.1333,-0.0862,-0.0684,-3.1281,-117.8894,-25.0931,2024-02-12 15:41:33.120,3.0
-0.7507,-0.0288,-0.1465,-8.3237,-128.2883,-22.4762,2024-02-12 15:41:33.378,3.0
-0.4629,-0.3005,0.0872,-6.6452,37.2086,-29.5486,2024-02-12 15:41:33.378,3.0
-0.8667,-0.2671,-0.0244,9.0179,80.7953,-48.3475,2024-02-12 15:41:33.378,3.0
-1.2825,-0.1511,-0.3542,6.0654,77.3163,-49.7589,2024-02-12 15:41:33.396,3.0
-1.4309,-0.0937,-0.2292,-8.5602,17.395,-35.5988,2024-02-12 15:41:33.401,3.0
-1.249,-0.0908,-0.0469,-14.1754,-70.7321,-33.699,2024-02-12 15:41:33.426,3.0
-0.999,-0.0281,-0.0479,-15.3427,-108.7341,-33.2565,2024-02-12 15:41:33.433,3.0
-0.4841,0.0225,-0.0784,-21.9345,-89.4241,-40.3137,2024-02-12 15:41:33.466,3.0
-0.3015,0.022,-0.0437,-27.8778,-53.9703,-54.1916,2024-02-12 15:41:33.500,3.0
-0.3408,-0.0305,0.0132,-33.6075,-17.7307,-64.6896,2024-02-12 15:41:33.519,3.0
-0.5723,-0.0857,0.0352,-41.3055,10.5286,-62.7441,2024-02-12 15:41:33.519,3.0
-0.6592,-0.1201,0.0588,-43.7546,11.5891,-55.2292,2024-02-12 15:41:33.527,3.0
-0.7766,-0.1206,0.179,-43.0298,-7.1487,-44.2505,2024-02-12 15:41:33.552,3.0
-0.6497,-0.1284,0.0986,-42.9535,-24.2462,-30.1056,2024-02-12 15:41:33.561,3.0
-0.5356,-0.1338,0.1084,-42.8467,-24.0631,-17.6468,2024-02-12 15:41:33.578,3.0
-0.4282,-0.1494,0.1211,-43.4036,-2.8687,-7.0877,2024-02-12 15:41:33.602,3.0
-0.4736,-0.1973,0.1514,-41.8777,18.074,0.6485,2024-02-12 15:41:33.618,3.0
-0.5889,-0.179,0.218,-38.3377,29.8309,11.4517,2024-02-12 15:41:33.635,3.0
-0.7556,-0.114,0.2979,-34.3399,28.1754,24.147,2024-02-12 15:41:33.651,3.0
-0.8555,-0.085,0.3533,-27.5574,15.1825,34.256,2024-02-12 15:41:33.667,3.0
-0.8772,-0.1799,0.283,-19.2337,-0.3586,39.0549,2024-02-12 15:41:33.683,3.0
-0.8413,-0.2095,0.209,-13.2904,-10.3073,30.5176,2024-02-12 15:41:33.699,3.0
-0.7632,-0.1838,0.0979,-13.4048,-8.5449,12.2833,2024-02-12 15:41:33.711,3.0
-0.7722,-0.1101,0.1104,-8.0643,13.1378,-7.4005,2024-02-12 15:41:33.727,3.0
-0.8687,-0.0837,0.1575,-4.921,47.9507,-32.814,2024-02-12 15:41:33.752,3.0
-1.0994,-0.1157,0.3259,-16.5787,54.4586,-41.2216,2024-02-12 15:41:33.768,3.0
-1.2458,-0.0107,0.4336,-18.6081,40.8401,-32.7225,2024-02-12 15:41:33.777,3.0
-1.1433,0.0559,0.2576,-24.3073,9.613,-17.5552,2024-02-12 15:41:33.801,3.0
-0.8997,-0.2827,0.0527,-41.3361,16.0294,-32.0206,2024-02-12 15:41:33.818,3.0
-1.0522,-0.3723,0.2222,-29.5029,44.9295,-64.8651,2024-02-12 15:41:33.834,3.0
-1.2122,-0.6797,-0.0103,-25.9705,47.7676,-84.3048,2024-02-12 15:41:33.851,3.0
-1.2661,-0.8123,0.0144,16.922,44.3726,-98.7778,2024-02-12 15:41:33.860,3.0
-1.4888,-0.4529,-0.3333,41.6031,-13.8931,-71.5561,2024-02-12 15:41:33.877,3.0
-1.1313,-0.2063,-0.3608,19.9203,-69.9615,-41.9693,2024-02-12 15:41:33.893,3.0
-0.8354,-0.0659,-0.3474,3.4027,-99.5483,-2.8076,2024-02-12 15:41:33.917,3.0
-0.4827,-0.1055,-0.2893,-13.2294,-77.3849,25.2228,2024-02-12 15:41:33.933,3.0
-0.4133,-0.1064,-0.2283,-23.7808,-14.5569,23.9944,2024-02-12 15:41:33.949,3.0
-0.7429,0.0466,0.0054,-26.3901,42.6712,16.8304,2024-02-12 15:41:33.965,3.0
-1.1794,0.137,-0.0703,-18.6157,71.785,14.9765,2024-02-12 15:41:33.982,3.0
-1.3618,0.0693,-0.2729,-14.9689,65.0406,22.0337,2024-02-12 15:41:33.990,3.0
-1.3237,0.0029,-0.2854,-26.0391,2.1591,30.4947,2024-02-12 15:41:34.007,3.0
-1.1768,-0.1089,0.0374,-24.8566,-54.5273,41.1682,2024-02-12 15:41:34.023,3.0
-0.957,-0.2146,0.0583,-10.2005,-66.5512,55.069,2024-02-12 15:41:34.039,3.0
-0.7109,-0.2793,-0.105,-2.2278,-46.2723,65.8264,2024-02-12 15:41:34.056,3.0
-0.5027,-0.2488,-0.0876,2.4872,-22.2168,64.6667,2024-02-12 15:41:34.082,3.0
-0.5046,-0.1877,0.0723,11.6348,-9.613,54.2145,2024-02-12 15:41:34.099,3.0
-0.5857,-0.0945,0.1394,22.4304,-6.1646,48.912,2024-02-12 15:41:34.116,3.0
-0.5588,-0.0349,0.0693,30.2505,-12.4969,45.4254,2024-02-12 15:41:34.136,3.0
-0.5491,0.0181,0.1008,35.1028,-23.2925,38.3377,2024-02-12 15:41:34.152,3.0
-0.353,0.0654,-0.0361,36.6898,-20.6299,28.7552,2024-02-12 15:41:34.176,3.0
-0.3181,0.1013,0.0559,37.2162,-3.4866,16.9754,2024-02-12 15:41:34.193,3.0
-0.2793,0.106,0.1106,39.3524,13.9923,4.6082,2024-02-12 15:41:34.201,3.0
-0.3633,0.0818,0.1714,42.2592,31.9595,-7.6675,2024-02-12 15:41:34.226,3.0
-0.5376,0.0852,0.2358,42.7399,40.7486,-16.1438,2024-02-12 15:41:34.243,3.0
-0.7791,0.0667,0.2368,41.6718,40.5273,-24.1013,2024-02-12 15:41:34.259,3.0
-0.9905,0.05,0.2004,41.7557,22.7585,-18.959,2024-02-12 15:41:34.276,3.0
-0.9766,0.0835,-0.0076,30.8914,-14.0915,-6.7062,2024-02-12 15:41:34.301,3.0
-0.8682,0.1809,-0.1416,12.8784,-10.9711,0.885,2024-02-12 15:41:34.317,3.0
-0.9702,0.1555,0.1106,3.3417,40.3976,1.4496,2024-02-12 15:41:34.334,3.0
-1.0862,0.1621,0.2881,8.7738,62.8815,4.9591,2024-02-12 15:41:34.358,3.0
-1.1125,0.0676,0.3572,11.8332,46.5698,7.1945,2024-02-12 15:41:34.366,3.0
-1.1165,0.0757,0.2271,27.0462,43.6401,9.0179,2024-02-12 15:41:34.390,3.0
-1.2927,-0.0227,-0.0325,31.7917,75.6989,11.322,2024-02-12 15:41:34.408,3.0
-1.5352,0.2546,-0.2578,29.2664,84.2361,31.9824,2024-02-12 15:41:34.424,3.0
-1.3923,0.4211,-0.6663,3.9978,33.6227,56.1905,2024-02-12 15:41:34.442,3.0
-1.228,0.3049,-0.5417,-25.795,-34.8358,59.9899,2024-02-12 15:41:34.458,3.0
-0.8904,-0.0681,-0.2361,-26.1154,-92.3309,61.9736,2024-02-12 15:41:34.483,3.0
-0.4702,-0.3059,-0.1909,-12.3749,-106.3614,41.7862,2024-02-12 15:41:34.507,3.0
-0.3452,-0.2786,-0.0674,0.3128,-70.5795,12.7945,2024-02-12 15:41:34.516,3.0
-0.5015,-0.3174,0.1387,16.4337,-3.5934,-9.6359,2024-02-12 15:41:34.532,3.0
-0.7703,-0.3022,0.0557,35.4614,56.2286,-32.28,2024-02-12 15:41:34.550,3.0
-1.2324,-0.1589,-0.2463,33.2718,75.9811,-44.136,2024-02-12 15:41:34.574,3.0
-1.3594,-0.106,-0.1785,21.4386,22.2473,-32.3334,2024-02-12 15:41:34.583,3.0
-1.188,-0.0334,-0.0854,14.9612,-74.5316,-27.8473,2024-02-12 15:41:34.600,3.0
-0.8667,0.0437,-0.1321,7.3547,-112.9227,-28.0228,2024-02-12 15:41:34.624,3.0
-0.4949,0.0847,-0.1562,-1.8692,-95.6802,-34.2255,2024-02-12 15:41:34.641,3.0
-0.283,0.0703,-0.1064,-13.1454,-60.0433,-46.814,2024-02-12 15:41:34.658,3.0
-0.2908,0.002,-0.0427,-24.437,-20.1492,-57.0679,2024-02-12 15:41:34.682,3.0
-0.469,-0.0701,0.0635,-31.7154,12.2299,-56.9611,2024-02-12 15:41:34.700,3.0
-0.6523,-0.1277,0.0952,-35.2631,22.3541,-47.699,2024-02-12 15:41:34.716,3.0
-0.6892,-0.1548,0.0396,-37.0407,10.231,-35.3546,2024-02-12 15:41:34.732,3.0
-0.7063,-0.1716,0.1118,-37.0712,-5.7831,-16.4261,2024-02-12 15:41:34.750,3.0
-0.6038,-0.1516,0.175,-36.377,-11.3449,-4.4098,2024-02-12 15:41:34.767,3.0
-0.55,-0.134,0.2317,-31.9824,-7.7896,6.2866,2024-02-12 15:41:34.791,3.0
-0.5396,-0.1421,0.229,-29.3884,1.564,15.2969,2024-02-12 15:41:34.808,3.0
-0.573,-0.1428,0.2603,-25.9705,15.48,23.5901,2024-02-12 15:41:34.817,3.0
-0.6536,-0.137,0.3035,-20.7748,24.3912,29.5258,2024-02-12 15:41:34.833,3.0
-0.7588,-0.1953,0.2695,-13.9236,25.3983,31.6772,2024-02-12 15:41:34.858,3.0
-0.8435,-0.1724,0.1357,-12.8098,21.9345,27.1454,2024-02-12 15:41:34.883,3.0
-0.9478,-0.0569,0.0647,-16.4871,14.4119,19.4321,2024-02-12 15:41:34.891,3.0
-0.9802,0.074,0.0256,-22.0108,16.8762,8.7051,2024-02-12 15:41:34.907,3.0
-0.9688,0.1719,0.061,-30.9296,25.7645,-12.4359,2024-02-12 15:41:34.923,3.0
-1.0669,0.0549,0.127,-41.8091,29.5334,-27.2064,2024-02-12 15:41:34.931,3.0
-1.1096,-0.0889,0.2422,-49.2401,25.3754,-26.5198,2024-02-12 15:41:34.949,3.0
-1.0825,-0.0266,0.3916,-48.1796,14.8468,-20.8206,2024-02-12 15:41:34.973,3.0
-0.8706,-0.2588,0.1887,-53.1082,13.2751,-23.2925,2024-02-12 15:41:34.989,3.0
-0.9829,-0.4668,0.2085,-54.9011,43.4036,-46.7606,2024-02-12 15:41:34.998,3.0
-1.3391,-0.447,0.1809,-29.6707,50.2472,-71.579,2024-02-12 15:41:35.024,3.0
-1.3242,-0.7283,-0.0337,-9.6359,23.2849,-67.3676,2024-02-12 15:41:35.041,3.0
-1.1951,-0.6133,-0.2036,27.1378,-17.2729,-64.5294,2024-02-12 15:41:35.066,3.0
-0.9272,-0.3223,-0.3706,20.2026,-68.9087,-42.5873,2024-02-12 15:41:35.083,3.0
-0.5776,0.0046,-0.2629,-1.9684,-78.4531,-21.0342,2024-02-12 15:41:35.100,3.0
-0.3953,-0.0186,-0.1797,-15.1672,-33.4854,6.1874,2024-02-12 15:41:35.108,3.0
-0.5461,0.0012,-0.1533,-15.5945,49.881,9.5749,2024-02-12 15:41:35.125,3.0
-1.0554,0.1973,-0.1538,-18.1656,96.1151,7.8049,2024-02-12 15:41:35.150,3.0
-1.4548,0.042,-0.1931,-17.1967,84.3277,15.892,2024-02-12 15:41:35.166,3.0
-1.5022,-0.1592,-0.1704,-14.2593,23.9487,31.1279,2024-02-12 15:41:35.190,3.0
-1.282,-0.2368,0.0828,-11.1465,-57.7545,49.7818,2024-02-12 15:41:35.216,3.0
-0.9619,-0.2974,0.0891,4.5929,-90.8127,63.5986,2024-02-12 15:41:35.224,3.0
-0.6025,-0.2759,-0.0928,14.9307,-87.3947,69.3359,2024-02-12 15:41:35.260,3.0
-0.4543,-0.1721,0.0405,15.9149,-63.7054,65.3839,2024-02-12 15:41:35.268,3.0
-0.3018,-0.0591,0.0557,19.4626,-28.0228,53.7491,2024-02-12 15:41:35.276,3.0
-0.4021,-0.0217,0.1621,23.4528,3.2654,46.2875,2024-02-12 15:41:35.292,3.0
-0.5122,-0.009,0.1909,28.9078,17.3111,40.9088,2024-02-12 15:41:35.308,3.0
-0.5681,-0.0107,0.1672,33.8364,6.2408,31.2729,2024-02-12 15:41:35.324,3.0
-0.5405,0.0535,0.157,35.9192,-9.903,21.5302,2024-02-12 15:41:35.342,3.0
-0.4241,0.1133,0.1296,34.8511,-14.8773,12.3672,2024-02-12 15:41:35.376,3.0
-0.3396,0.1626,0.2119,33.4015,-3.7842,1.1597,2024-02-12 15:41:35.376,3.0
-0.363,0.1616,0.291,35.5988,12.413,-11.7188,2024-02-12 15:41:35.392,3.0
-0.4812,0.1416,0.2693,37.7045,24.0707,-22.1558,2024-02-12 15:41:35.417,3.0
-0.6914,0.0945,0.1257,39.9628,31.0898,-22.9492,2024-02-12 15:41:35.433,3.0
-0.8191,0.0732,-0.062,36.3464,16.4261,-13.7405,2024-02-12 15:41:35.458,3.0
-0.8015,0.042,-0.2031,22.3618,7.8735,-8.5297,2024-02-12 15:41:35.474,3.0
-0.9233,0.0422,0.0371,16.2735,42.3355,-7.8583,2024-02-12 15:41:35.482,3.0
-1.1179,0.095,0.2483,25.3067,69.6487,1.0834,2024-02-12 15:41:35.507,3.0
-1.1548,0.0894,0.2852,33.4091,72.4564,9.7427,2024-02-12 15:41:35.523,3.0
-1.1296,0.0908,0.2837,36.5067,56.9916,7.2174,2024-02-12 15:41:35.540,3.0
-1.123,0.2542,-0.0374,47.287,69.9615,10.5896,2024-02-12 15:41:35.583,3.0
-1.4382,0.2578,-0.2783,39.3295,122.2839,14.2136,2024-02-12 15:41:35.583,3.0
-1.748,0.4292,-0.5325,22.0871,127.8534,42.6407,2024-02-12 15:41:35.592,3.0
-1.5725,0.2878,-0.8489,-15.8539,47.02,73.0667,2024-02-12 15:41:35.609,3.0
-1.2959,0.1289,-0.562,-43.2053,-67.6117,60.936,2024-02-12 15:41:35.633,3.0
-0.8755,-0.1565,-0.2234,-36.6058,-130.4626,54.6341,2024-02-12 15:41:35.650,3.0
-0.2744,-0.2185,-0.1729,-23.7198,-140.6631,27.9083,2024-02-12 15:41:35.658,3.0
-0.2019,-0.1223,-0.0022,-11.6577,-49.6063,-2.8992,2024-02-12 15:41:35.683,3.0
-0.4146,-0.1746,0.1477,5.2261,43.2968,-31.2805,2024-02-12 15:41:35.708,3.0
-0.8347,-0.2034,-0.1023,21.5454,93.7729,-53.5736,2024-02-12 15:41:35.717,3.0
-1.4517,-0.1726,-0.4746,15.1291,110.7178,-50.3235,2024-02-12 15:41:35.740,3.0
-1.5046,-0.2112,-0.1294,5.2032,4.3259,-36.6745,2024-02-12 15:41:35.758,3.0
-1.2683,-0.1672,-0.0371,9.5367,-110.1685,-33.0811,2024-02-12 15:41:35.774,3.0
-0.8135,-0.0906,-0.1084,11.5967,-141.2354,-25.9399,2024-02-12 15:41:35.798,3.0
-0.4111,-0.0259,-0.1333,11.2534,-101.2878,-34.6527,2024-02-12 15:41:35.814,3.0
-0.2375,-0.0132,-0.1074,6.813,-47.8134,-50.3769,2024-02-12 15:41:35.832,3.0
-0.2874,-0.0549,-0.084,0.6027,-17.9291,-57.7774,2024-02-12 15:41:35.840,3.0
-0.4705,-0.1511,0.0095,-7.8201,7.4997,-56.5491,2024-02-12 15:41:35.866,3.0
-0.6289,-0.2075,0.0811,-7.1411,12.5732,-48.851,2024-02-12 15:41:35.882,3.0
-0.7124,-0.1982,0.0464,-6.7368,0.3815,-33.6456,2024-02-12 15:41:35.900,3.0
-0.6343,-0.1292,0.0261,-9.964,-19.2642,-18.9209,2024-02-12 15:41:35.917,3.0
-0.5305,-0.1025,0.1045,-15.4266,-23.4451,-8.2474,2024-02-12 15:41:35.942,3.0
-0.4497,-0.1013,0.2112,-17.7155,-10.6049,-0.5569,2024-02-12 15:41:35.950,3.0
-0.4951,-0.0544,0.2712,-17.4408,12.97,6.2561,2024-02-12 15:41:35.974,3.0
-0.6001,0.0071,0.2815,-17.5781,31.7383,13.916,2024-02-12 15:41:35.990,3.0
-0.7131,0.002,0.3167,-15.6326,36.7584,22.7356,2024-02-12 15:41:35.999,3.0
-0.8579,-0.1189,0.2524,-12.6266,29.5334,27.1149,2024-02-12 15:41:36.024,3.0
-0.9321,-0.2432,0.0781,-10.1395,15.2664,24.8032,2024-02-12 15:41:36.041,3.0
-0.8425,-0.196,-0.0061,-5.8136,11.2076,9.4757,2024-02-12 15:41:36.057,3.0
-0.8572,-0.1079,0.1177,-2.3422,21.8735,-11.5204,2024-02-12 15:41:36.074,3.0
-1.0146,-0.1375,0.208,-5.6763,32.4478,-34.111,2024-02-12 15:41:36.090,3.0
-1.0767,-0.0684,0.2483,-12.7411,31.6696,-30.3421,2024-02-12 15:41:36.107,3.0
-0.9314,-0.0671,0.1829,-19.5923,15.1443,-25.1312,2024-02-12 15:41:36.132,3.0
-0.8413,-0.3972,0.0342,-34.6527,41.1911,-48.4772,2024-02-12 15:41:36.149,3.0
-1.2009,-0.3623,0.0339,-27.504,65.2237,-82.6187,2024-02-12 15:41:36.165,3.0
-1.3838,-0.749,-0.1003,-14.3433,34.9808,-87.5778,2024-02-12 15:41:36.190,3.0
-1.4197,-0.3867,-0.094,38.2004,-33.9737,-71.3196,2024-02-12 15:41:36.198,3.0
-1.0352,-0.2971,-0.5176,28.2211,-89.0198,-47.6151,2024-02-12 15:41:36.223,3.0
-0.6909,-0.043,-0.436,-8.1482,-102.4628,-24.6887,2024-02-12 15:41:36.248,3.0
-0.4702,-0.062,-0.1414,-26.2909,-69.5801,-1.7242,2024-02-12 15:41:36.264,3.0
-0.5654,-0.0486,0.0007,-27.0081,8.5449,1.7776,2024-02-12 15:41:36.282,3.0
-0.9829,0.0828,0.0503,-27.6108,67.0853,-0.4959,2024-02-12 15:41:36.299,3.0
-1.3938,-0.0039,-0.0864,-17.0135,85.289,9.9716,2024-02-12 15:41:36.307,3.0
-1.5381,-0.1948,-0.2563,-9.201,40.6342,30.7922,2024-02-12 15:41:36.331,3.0
-1.3042,-0.1892,-0.0857,-12.3596,-35.0723,46.6995,2024-02-12 15:41:36.347,3.0
-0.9736,-0.2795,-0.0579,1.4954,-64.9567,56.9305,2024-02-12 15:41:36.363,3.0
-0.7014,-0.3179,-0.0859,11.3678,-55.7098,62.767,2024-02-12 15:41:36.382,3.0
-0.5298,-0.2617,-0.0352,17.8223,-19.3787,60.524,2024-02-12 15:41:36.399,3.0
-0.5071,-0.1609,0.0046,27.3209,13.3133,54.512,2024-02-12 15:41:36.423,3.0
-0.604,-0.0466,0.0244,33.6685,19.783,55.069,2024-02-12 15:41:36.439,3.0
-0.5518,0.0044,-0.0352,38.4598,14.3127,48.5916,2024-02-12 15:41:36.464,3.0
-0.5142,0.0247,-0.0315,40.7333,2.9907,38.0707,2024-02-12 15:41:36.474,3.0
-0.4595,0.0459,-0.0466,38.2156,-0.5875,28.0609,2024-02-12 15:41:36.490,3.0
-0.3569,0.0669,0.0535,34.0576,13.9999,13.0157,2024-02-12 15:41:36.515,3.0
-0.3589,0.0825,0.1165,36.0184,36.3235,-2.4872,2024-02-12 15:41:36.531,3.0
-0.4463,0.0715,0.0852,37.9715,48.5077,-10.2539,2024-02-12 15:41:36.548,3.0
-0.5261,0.1084,0.1042,35.4462,48.0957,-14.1068,2024-02-12 15:41:36.572,3.0
-0.6372,0.1494,0.0852,31.7612,36.1786,-16.2964,2024-02-12 15:41:36.574,3.0
-0.8047,0.1357,-0.0332,23.4528,6.4163,-16.8228,2024-02-12 15:41:36.598,3.0
-0.7986,0.0654,-0.1714,7.7133,-28.1754,-9.3384,2024-02-12 15:41:36.623,3.0
-0.7185,-0.0835,-0.054,-4.1809,-27.7481,-9.8495,2024-02-12 15:41:36.639,3.0
-0.7927,-0.2354,0.1223,-3.7689,14.5645,-18.5928,2024-02-12 15:41:36.655,3.0
-1.1067,-0.2327,0.3335,14.4577,55.2826,-12.764,2024-02-12 15:41:36.674,3.0
-1.1492,-0.1213,0.3042,35.1181,46.2799,-1.8005,2024-02-12 15:41:36.690,3.0
-1.0645,0.0974,0.1328,45.3415,15.1749,0.5264,2024-02-12 15:41:36.707,3.0
-1.1909,0.2014,-0.1809,39.856,42.1448,1.9989,2024-02-12 15:41:36.723,3.0
-1.512,0.3826,-0.2607,23.9487,66.6809,18.0206,2024-02-12 15:41:36.740,3.0
-1.4153,0.5308,-0.8506,-5.4855,38.6353,41.6641,2024-02-12 15:41:36.765,3.0
-1.2725,0.4202,-0.8032,-52.9861,-10.5362,45.2194,2024-02-12 15:41:36.773,3.0
-1.082,0.0891,-0.4097,-64.7964,-47.6913,50.9033,2024-02-12 15:41:36.806,3.0
-0.7195,-0.1328,0.0024,-52.2079,-71.1517,41.5573,2024-02-12 15:41:36.815,3.0
-0.5371,-0.2073,-0.0027,-33.7982,-59.8984,13.3438,2024-02-12 15:41:36.839,3.0
-0.5381,-0.209,-0.0916,-21.9269,-20.05,-9.3231,2024-02-12 15:41:36.852,3.0
-0.7566,-0.2756,-0.1299,-17.7841,10.3073,-36.1481,2024-02-12 15:41:36.868,3.0
-1.1448,-0.2832,-0.2217,-6.6376,33.2108,-37.9105,2024-02-12 15:41:36.893,3.0
-1.2905,-0.1899,-0.2507,-6.6452,29.5563,-22.6669,2024-02-12 15:41:36.901,3.0
-1.1643,-0.1506,-0.1199,-10.5743,-51.1551,-18.5776,2024-02-12 15:41:36.934,3.0
-0.8511,-0.1284,-0.188,-11.795,-97.1985,-19.5389,2024-02-12 15:41:36.942,3.0
-0.6162,-0.0911,-0.1477,-16.0599,-95.4971,-20.3781,2024-02-12 15:41:36.966,3.0
-0.353,-0.0227,-0.075,-18.5699,-52.7496,-30.7541,2024-02-12 15:41:36.983,3.0
-0.3108,-0.0212,-0.0442,-23.6435,-17.2729,-42.1066,2024-02-12 15:41:37.000,3.0
-0.3962,-0.083,-0.0356,-28.3051,14.1754,-48.8586,2024-02-12 15:41:37.016,3.0
-0.6382,-0.1333,-0.0225,-33.8593,34.0881,-45.1736,2024-02-12 15:41:37.033,3.0
-0.7187,-0.1365,-0.0386,-39.1541,28.7476,-36.5829,2024-02-12 15:41:37.049,3.0
-0.7278,-0.1301,-0.0063,-42.8848,6.6986,-27.0462,2024-02-12 15:41:37.073,3.0
-0.6787,-0.0984,0.0247,-44.1132,-7.9422,-16.1591,2024-02-12 15:41:37.090,3.0
-0.6189,-0.0662,0.043,-47.6303,-6.6071,-5.4932,2024-02-12 15:41:37.107,3.0
-0.5896,-0.0562,0.1035,-52.8259,3.6316,5.1346,2024-02-12 15:41:37.131,3.0
-0.6335,-0.0681,0.1724,-55.397,11.3449,10.1242,2024-02-12 15:41:37.147,3.0
-0.7187,-0.0503,0.22,-54.4739,12.1002,13.6795,2024-02-12 15:41:37.164,3.0
-0.7637,-0.114,0.1865,-53.299,3.2883,13.0463,2024-02-12 15:41:37.181,3.0
-0.8105,-0.1392,0.1523,-55.8014,-4.0054,6.7291,2024-02-12 15:41:37.199,3.0
-0.8018,-0.092,0.123,-55.542,-6.5918,0.3662,2024-02-12 15:41:37.223,3.0
-0.7319,-0.0713,0.0002,-56.4117,3.4103,-16.1514,2024-02-12 15:41:37.248,3.0
-0.7827,-0.0842,-0.0059,-64.743,16.9907,-35.2249,2024-02-12 15:41:37.248,3.0
-0.8862,-0.1079,0.1331,-68.7103,19.989,-43.808,2024-02-12 15:41:37.264,3.0
-0.9846,-0.0845,0.1943,-72.876,8.1711,-39.9017,2024-02-12 15:41:37.281,3.0
-0.8804,-0.3066,0.0076,-75.2945,13.5956,-32.1045,2024-02-12 15:41:37.302,3.0
-0.9814,-0.3796,-0.0908,-65.2161,70.1141,-65.4907,2024-02-12 15:41:37.319,3.0
-1.3784,-0.6528,-0.1172,-45.5627,70.8847,-90.271,2024-02-12 15:41:37.335,3.0
-1.7092,-0.6189,-0.0835,-15.4953,16.5176,-66.8411,2024-02-12 15:41:37.360,3.0
-1.3657,-0.3276,-0.2957,-11.0092,-72.2656,-44.1742,2024-02-12 15:41:37.376,3.0
-0.9133,-0.3101,-0.3606,-24.8108,-101.7151,-27.771,2024-02-12 15:41:37.392,3.0
-0.6724,-0.1938,-0.3098,-36.2625,-85.1517,-13.7634,2024-02-12 15:41:37.424,3.0
-0.6196,0.1138,-0.2476,-41.4963,-41.3742,5.2414,2024-02-12 15:41:37.433,3.0
-0.6807,0.2434,-0.2258,-49.2096,0.3052,15.4266,2024-02-12 15:41:37.458,3.0
-0.7888,0.2278,-0.2437,-61.409,33.0582,13.0615,2024-02-12 15:41:37.466,3.0
-0.9922,0.0945,-0.1467,-70.4498,50.4837,11.1008,2024-02-12 15:41:37.482,3.0
-1.1108,-0.095,-0.0525,-72.9294,18.6234,23.3841,2024-02-12 15:41:37.498,3.0
-1.0256,-0.1812,-0.0505,-72.2809,-20.0043,29.2435,2024-02-12 15:41:37.523,3.0
-0.8765,-0.1138,-0.0464,-69.5801,-34.3018,27.1606,2024-02-12 15:41:37.548,3.0
-0.7727,-0.0647,-0.0725,-68.9163,-28.7628,24.0707,2024-02-12 15:41:37.556,3.0
-0.7383,-0.0457,-0.0337,-68.0542,-21.904,22.2168,2024-02-12 15:41:37.572,3.0
-0.741,-0.0039,0.0076,-66.4673,-15.892,21.8506,2024-02-12 15:41:37.598,3.0
-0.7024,0.0242,-0.0005,-67.3828,-12.1002,21.0419,2024-02-12 15:41:37.606,3.0
-0.675,0.0225,0.0344,-69.5724,-16.4032,20.2332,2024-02-12 15:41:37.631,3.0
-0.6038,0.0586,0.051,-71.0754,-20.8359,16.2048,2024-02-12 15:41:37.657,3.0
-0.5229,0.1201,0.0403,-73.7381,-13.4888,9.3002,2024-02-12 15:41:37.665,3.0
-0.4314,0.1875,0.0444,-78.0869,4.7989,0.8621,2024-02-12 15:41:37.682,3.0
-0.4282,0.1541,0.0618,-82.8094,22.9568,-9.5825,2024-02-12 15:41:37.699,3.0
-0.5283,0.1094,0.0779,-83.6411,36.1023,-19.1422,2024-02-12 15:41:37.715,3.0
-0.6907,0.0933,0.041,-85.2127,34.79,-25.5661,2024-02-12 15:41:37.739,3.0
-0.8618,0.0706,-0.0181,-95.6573,0.8011,-30.0903,2024-02-12 15:41:37.747,3.0
-0.9377,-0.0352,0.0522,-106.9183,-53.5812,-34.9731,2024-02-12 15:41:37.771,3.0
-0.9192,-0.1895,0.1572,-105.3848,-87.4939,-35.0266,2024-02-12 15:41:37.787,3.0
-0.8655,-0.2383,0.2793,-96.8246,-80.2612,-29.2206,2024-02-12 15:41:37.803,3.0
-0.7673,-0.1624,0.4834,-86.5173,-54.5654,-18.4097,2024-02-12 15:41:37.827,3.0
-0.5872,-0.1279,0.4707,-70.6024,-33.4015,-15.0986,2024-02-12 15:41:37.843,3.0
-0.5452,-0.0012,0.3364,-53.2684,-3.4561,-13.71,2024-02-12 15:41:37.867,3.0
-0.6941,0.1562,0.3223,-36.2778,33.8669,-7.0801,2024-02-12 15:41:37.883,3.0
-0.865,0.2551,0.0479,-24.7269,56.3126,-6.8054,2024-02-12 15:41:37.891,3.0
-1.2375,0.2434,-0.8765,-26.3214,98.1903,4.7302,2024-02-12 15:41:37.908,3.0
-1.542,0.3716,-0.8716,-54.1687,126.3809,25.3525,2024-02-12 15:41:37.932,3.0
-1.5439,0.3213,-0.061,-71.8002,49.6826,40.4739,2024-02-12 15:41:37.949,3.0
-0.9724,-0.1038,-0.4062,-64.7888,-62.3627,21.5454,2024-02-12 15:41:37.990,3.0
-0.6602,-0.0215,-0.6294,-62.3093,-77.3087,-5.3482,2024-02-12 15:41:37.990,3.0
-0.6938,-0.0073,-0.2515,-60.6308,-6.8741,-16.6626,2024-02-12 15:41:37.999,3.0
-0.9668,0.0105,-0.1089,-49.5758,86.0519,-33.1497,2024-02-12 15:41:38.023,3.0
-1.3699,0.1726,-0.4766,-57.0679,126.4877,-40.5731,2024-02-12 15:41:38.048,3.0
-1.5757,0.23,-0.5752,-89.5615,72.1207,-36.85,2024-02-12 15:41:38.064,3.0
-1.4299,-0.0146,-0.3164,-109.0622,-43.335,-54.657,2024-02-12 15:41:38.073,3.0
-1.167,-0.1755,-0.1375,-105.9494,-103.5843,-52.6505,2024-02-12 15:41:38.089,3.0
-0.7114,-0.1873,-0.1274,-108.5129,-84.4269,-51.1246,2024-02-12 15:41:38.106,3.0
-0.4846,-0.1904,-0.218,-114.0137,-53.9169,-56.6483,2024-02-12 15:41:38.131,3.0
-0.437,-0.1575,-0.2507,-123.1079,-37.2009,-54.1229,2024-02-12 15:41:38.148,3.0
-0.4351,-0.1262,-0.2043,-133.3084,-18.0435,-45.2576,2024-02-12 15:41:38.165,3.0
-0.4375,-0.1628,-0.1636,-137.3825,-3.7308,-39.1617,2024-02-12 15:41:38.173,3.0
-0.4336,-0.1895,-0.1111,-137.1613,-3.6621,-35.3699,2024-02-12 15:41:38.197,3.0
-0.4109,-0.2456,-0.0937,-133.5754,-12.0392,-30.571,2024-02-12 15:41:38.218,3.0
-0.3875,-0.2659,-0.0796,-128.2425,-12.825,-23.9105,2024-02-12 15:41:38.243,3.0
-0.3518,-0.3091,-0.0417,-124.4125,-1.7014,-20.0424,2024-02-12 15:41:38.251,3.0
-0.3657,-0.4126,0.0215,-121.6049,18.1427,-20.7062,2024-02-12 15:41:38.275,3.0
-0.4824,-0.478,0.1973,-111.7554,33.1726,-20.668,2024-02-12 15:41:38.291,3.0
-0.6404,-0.4038,0.2402,-95.0241,37.674,-19.3024,2024-02-12 15:41:38.299,3.0
-0.7871,-0.3535,0.1475,-84.8312,35.202,-17.5629,2024-02-12 15:41:38.324,3.0
-0.9204,-0.3704,0.2029,-75.3479,24.2386,-13.6642,2024-02-12 15:41:38.332,3.0
-0.9495,-0.4756,0.3342,-53.0319,-1.4725,-10.2081,2024-02-12 15:41:38.356,3.0
-1.0232,-0.406,0.2732,-33.5999,-1.4496,-8.522,2024-02-12 15:41:38.382,3.0
-1.0696,-0.2476,0.2153,-28.9078,-1.9836,-2.4185,2024-02-12 15:41:38.398,3.0
-1.1128,-0.1033,0.2664,-29.953,-7.4539,-2.2964,2024-02-12 15:41:38.423,3.0
-1.0767,-0.1838,0.0549,-29.1901,-0.7706,-8.0643,2024-02-12 15:41:38.432,3.0
-1.0374,-0.3865,-0.2214,-29.4342,23.5062,-31.1279,2024-02-12 15:41:38.457,3.0
-1.2065,-0.5024,-0.0544,-11.7569,34.111,-71.0754,2024-02-12 15:41:38.473,3.0
-1.562,-0.4773,0.2385,15.3351,-18.219,-68.1839,2024-02-12 15:41:38.490,3.0
-1.5251,-0.2017,-0.061,22.9568,-96.3745,4.6463,2024-02-12 15:41:38.498,3.0
-0.4761,-0.2568,-0.6848,4.8676,-142.807,47.2031,2024-02-12 15:41:38.522,3.0
-0.126,-0.189,-0.5952,-23.4604,-80.7648,18.9667,2024-02-12 15:41:38.538,3.0
-0.6111,0.1519,-0.1216,-24.2157,7.0572,-0.8621,2024-02-12 15:41:38.562,3.0
-1.0833,0.1543,-0.1479,-6.3705,52.9099,11.2076,2024-02-12 15:41:38.570,3.0
-1.3057,-0.0261,-0.3235,4.8752,55.5878,14.3204,2024-02-12 15:41:38.586,3.0
-1.48,-0.1113,-0.2041,12.8403,-13.5574,31.044,2024-02-12 15:41:38.618,3.0
-1.2393,-0.1672,-0.1277,26.2756,-80.246,53.566,2024-02-12 15:41:38.626,3.0
-0.8306,-0.1531,-0.1619,35.4843,-103.4317,57.4951,2024-02-12 15:41:38.646,3.0
-0.5652,-0.1807,-0.1768,38.9099,-73.0972,47.2183,2024-02-12 15:41:38.670,3.0
-0.4634,-0.2,-0.1194,46.2646,-33.432,36.499,2024-02-12 15:41:38.678,3.0
-0.5286,-0.1377,-0.1001,55.1682,-0.9613,32.5699,2024-02-12 15:41:38.702,3.0
-0.5935,-0.0667,-0.0847,56.3736,8.3237,33.8058,2024-02-12 15:41:38.719,3.0
-0.6433,0.0154,-0.0278,57.9529,5.2185,30.6702,2024-02-12 15:41:38.735,3.0
-0.6917,0.0569,-0.0115,58.9828,-2.1362,26.4282,2024-02-12 15:41:38.751,3.0
-0.6758,0.0977,-0.0422,58.4793,-2.182,24.1699,2024-02-12 15:41:38.767,3.0
-0.6125,0.1182,-0.0562,55.7175,2.1133,22.6974,2024-02-12 15:41:38.791,3.0
-0.5461,0.125,-0.0459,49.1867,6.3782,17.7002,2024-02-12 15:41:38.808,3.0
-0.5454,0.1311,-0.0063,44.1971,18.1885,10.2921,2024-02-12 15:41:38.824,3.0
-0.5884,0.1277,-0.0068,42.1906,30.2429,1.5488,2024-02-12 15:41:38.849,3.0
-0.615,0.1052,0.1067,36.6516,26.4053,-2.7313,2024-02-12 15:41:38.865,3.0
-0.6758,0.0923,0.1414,33.4473,22.4915,-6.2485,2024-02-12 15:41:38.881,3.0
-0.7522,0.145,0.106,28.3127,23.0942,-7.164,2024-02-12 15:41:38.905,3.0
-0.8066,0.1558,0.064,16.4871,13.9923,-9.4223,2024-02-12 15:41:38.905,3.0
-0.8757,0.1418,0.1514,3.6697,-6.3324,-6.9351,2024-02-12 15:41:38.929,3.0
-0.8772,0.1216,0.1465,-2.7618,-15.7623,-3.0899,2024-02-12 15:41:38.937,3.0
-0.8916,0.0208,0.0356,-13.6414,-6.1035,-3.6697,2024-02-12 15:41:38.961,3.0
-0.9507,0.0378,0.1602,-22.8271,7.4081,-4.4327,2024-02-12 15:41:38.977,3.0
-1.0198,0.1118,0.1648,-24.7955,12.7945,3.2501,2024-02-12 15:41:38.993,3.0
-0.9707,0.1323,0.0896,-27.5726,15.5869,8.728,2024-02-12 15:41:39.018,3.0
-0.929,0.1248,0.0398,-30.8762,14.6332,7.225,2024-02-12 15:41:39.034,3.0
-1.05,0.0254,0.0483,-26.2756,31.5399,8.6746,2024-02-12 15:41:39.051,3.0
-1.3147,-0.0808,0.1599,-17.9977,49.0799,15.3351,2024-02-12 15:41:39.075,3.0
-1.3428,0.1145,-0.1333,-7.0953,20.195,39.6805,2024-02-12 15:41:39.091,3.0
-1.1558,0.2617,-0.6023,-18.4021,-9.2545,51.3687,2024-02-12 15:41:39.107,3.0
-0.8201,0.0217,-0.3926,-33.432,-53.7033,41.626,2024-02-12 15:41:39.132,3.0
-0.6221,-0.2153,-0.0996,-30.7083,-74.4171,26.3748,2024-02-12 15:41:39.148,3.0
-0.6108,-0.3208,0.0908,-8.4305,-32.2495,6.5079,2024-02-12 15:41:39.157,3.0
-0.7668,-0.2285,0.0476,20.0043,47.1725,-15.5106,2024-02-12 15:41:39.176,3.0
-1.0149,-0.0149,-0.073,20.1187,47.2946,-31.5247,2024-02-12 15:41:39.192,3.0
-1.219,0.0483,-0.2456,5.4016,8.3237,-36.1481,2024-02-12 15:41:39.209,3.0
-1.1016,-0.0593,-0.1755,-12.3444,-48.1796,-39.6652,2024-02-12 15:41:39.225,3.0
-0.8965,-0.0759,-0.0034,-11.055,-85.8154,-41.275,2024-02-12 15:41:39.292,3.0
-0.573,0.0225,-0.0786,-17.5476,-82.0694,-44.8914,2024-02-12 15:41:39.300,3.0
-0.3232,0.0417,-0.1802,-29.0833,-58.5556,-52.1393,2024-02-12 15:41:39.300,3.0
-0.2717,0.0249,-0.1511,-42.7856,-34.3704,-58.5632,2024-02-12 15:41:39.309,3.0
-0.3657,0.0054,-0.0371,-52.948,-10.4752,-57.579,2024-02-12 15:41:39.320,3.0
-0.5454,-0.0132,-0.0293,-62.7289,14.3814,-49.6445,2024-02-12 15:41:39.344,3.0
-0.6807,-0.0347,-0.0159,-72.3114,29.7241,-41.6641,2024-02-12 15:41:39.360,3.0
-0.7979,-0.0876,0.0251,-78.3157,23.7961,-31.6238,2024-02-12 15:41:39.368,3.0
-0.8181,-0.1843,0.0901,-74.585,-0.4196,-9.4528,2024-02-12 15:41:39.385,3.0
-0.7524,-0.25,0.1401,-67.4744,-10.3149,10.9482,2024-02-12 15:41:39.410,3.0
-0.6836,-0.2815,0.2319,-59.4406,-3.0289,23.7198,2024-02-12 15:41:39.435,3.0
-0.7229,-0.2734,0.3552,-49.5911,1.7929,29.1061,2024-02-12 15:41:39.443,3.0
-0.7974,-0.2625,0.4072,-35.9726,-4.364,34.317,2024-02-12 15:41:39.467,3.0
-0.8147,-0.2659,0.3042,-26.68,-12.1307,36.7661,2024-02-12 15:41:39.475,3.0
-0.824,-0.2703,0.2256,-14.6637,-13.9542,27.1606,2024-02-12 15:41:39.500,3.0
-0.8066,-0.2227,-0.0081,-7.3013,-11.8561,17.3264,2024-02-12 15:41:39.508,3.0
-0.7839,-0.0864,-0.0784,4.7913,5.4626,0.9918,2024-02-12 15:41:39.533,3.0
-0.8835,-0.0955,0.0835,7.2784,23.9792,-23.9105,2024-02-12 15:41:39.550,3.0
-1.1177,-0.0862,0.3711,-2.8992,23.0179,-32.4936,2024-02-12 15:41:39.579,3.0
-1.177,0.0662,0.3948,-13.8474,17.2501,-24.9863,2024-02-12 15:41:39.584,3.0
-0.9937,0.134,0.0857,-28.1754,-6.1646,-10.5362,2024-02-12 15:41:39.601,3.0
-0.8167,0.0181,0.0571,-56.7169,-11.2152,-22.1863,2024-02-12 15:41:39.624,3.0
-0.968,-0.1194,0.3147,-57.0297,9.3307,-49.0799,2024-02-12 15:41:39.650,3.0
-1.1682,-0.4417,0.2468,-40.6952,21.6599,-49.9878,2024-02-12 15:41:39.659,3.0
-1.1055,-0.543,0.009,-13.1378,20.9885,-50.1633,2024-02-12 15:41:39.684,3.0
-1.115,-0.627,-0.2966,-11.3525,-9.9487,-47.9736,2024-02-12 15:41:39.691,3.0
-1.0603,-0.5537,-0.3003,-11.5204,-43.1976,-33.8516,2024-02-12 15:41:39.709,3.0
-0.7703,-0.2271,-0.3506,-17.0135,-67.2684,-10.1395,2024-02-12 15:41:39.725,3.0
-0.7178,0.0181,-0.2441,-21.8201,-48.5458,9.5062,2024-02-12 15:41:39.749,3.0
-0.657,0.1626,-0.1665,-19.4092,-7.3242,17.189,2024-02-12 15:41:39.765,3.0
-0.8643,0.1204,-0.1396,-12.2833,44.2581,22.9187,2024-02-12 15:41:39.790,3.0
-1.0354,-0.0032,-0.1143,-10.1852,63.3926,26.2299,2024-02-12 15:41:39.807,3.0
-1.1277,-0.1604,-0.0198,-5.5313,38.2996,30.4108,2024-02-12 15:41:39.832,3.0
-1.1052,-0.23,0.0054,5.6686,-6.6299,37.2391,2024-02-12 15:41:39.832,3.0
-0.9775,-0.2522,-0.0269,16.9983,-29.8462,43.8309,2024-02-12 15:41:39.857,3.0
-0.8286,-0.24,-0.0542,26.7029,-22.3541,49.942,2024-02-12 15:41:39.873,3.0
-0.7048,-0.1733,0.0173,34.5993,-16.1972,52.8488,2024-02-12 15:41:39.898,3.0
-0.6392,-0.1072,0.0398,39.3677,-16.0599,50.0946,2024-02-12 15:41:39.938,3.0
-0.6138,-0.0532,0.093,43.1824,-16.6779,45.2499,2024-02-12 15:41:39.938,3.0
-0.5359,-0.0122,0.0818,46.8216,-12.8326,38.3224,2024-02-12 15:41:39.946,3.0
-0.542,-0.0017,0.1003,49.4385,0.5264,31.7383,2024-02-12 15:41:39.963,3.0
-0.4587,0.0479,0.0527,50.4532,15.2512,21.7743,2024-02-12 15:41:39.980,3.0
-0.5322,0.1221,0.1155,49.5682,32.3105,10.2768,2024-02-12 15:41:40.013,3.0
-0.5608,0.1746,0.0911,48.233,38.1775,3.1509,2024-02-12 15:41:40.013,3.0
-0.6169,0.2292,0.1462,42.3203,31.2195,-3.9215,2024-02-12 15:41:40.037,3.0
-0.7129,0.2085,0.2354,37.178,20.195,-11.9553,2024-02-12 15:41:40.054,3.0
-0.9041,0.1331,0.3262,33.5617,7.1564,-13.6642,2024-02-12 15:41:40.092,3.0
-1.0039,0.0674,0.3411,31.517,-17.4408,-7.2403,2024-02-12 15:41:40.092,3.0
-0.8335,0.0308,0.1182,23.4756,-49.1104,3.5324,2024-02-12 15:41:40.105,3.0
-0.6377,0.1372,-0.1047,10.3149,-54.863,4.9286,2024-02-12 15:41:40.138,3.0
-0.7107,0.3574,-0.0603,3.3112,14.4577,11.7493,2024-02-12 15:41:40.147,3.0
-0.7742,0.323,0.1401,1.5259,72.1817,16.4413,2024-02-12 15:41:40.155,3.0
-0.929,0.2258,0.1089,8.4229,81.2607,18.3563,2024-02-12 15:41:40.187,3.0
-1.0156,0.0422,-0.1177,3.7079,73.0209,15.48,2024-02-12 15:41:40.197,3.0
-1.3413,-0.0933,0.082,4.6158,88.1729,14.9689,2024-02-12 15:41:40.213,3.0
-1.5811,0.05,0.0649,22.3999,92.2623,35.5606,2024-02-12 15:41:40.263,3.0
-1.4883,0.217,-0.2537,20.7672,48.4009,49.0494,2024-02-12 15:41:40.271,3.0
-1.2708,0.0955,-0.4229,2.0752,-30.5481,45.9976,2024-02-12 15:41:40.271,3.0
-1.0586,0.0193,-0.218,4.1504,-97.702,43.3807,2024-02-12 15:41:40.279,3.0
-0.6228,-0.2288,-0.248,9.5139,-110.0159,33.3176,2024-02-12 15:41:40.314,3.0
-0.4709,-0.4246,-0.2405,10.2768,-54.7943,16.861,2024-02-12 15:41:40.330,3.0
-0.5728,-0.3606,0.019,20.7062,-4.6234,6.1951,2024-02-12 15:41:40.341,3.0
-0.8057,-0.3298,0.0139,28.3737,54.2755,-6.2103,2024-02-12 15:41:40.358,3.0
-1.0239,-0.2046,-0.0452,26.6953,67.7567,-23.2544,2024-02-12 15:41:40.366,3.0
-1.1265,-0.1038,-0.0649,19.31,5.5923,-35.7208,2024-02-12 15:41:40.405,3.0
-1.0422,-0.0337,-0.033,7.8506,-63.5147,-32.4402,2024-02-12 15:41:40.413,3.0
-0.7637,-0.0557,-0.0378,6.279,-75.1953,-27.5269,2024-02-12 15:41:40.430,3.0
-0.4749,-0.0452,-0.0376,4.9591,-43.6554,-36.0336,2024-02-12 15:41:40.447,3.0
-0.4319,-0.0454,0.0317,2.3499,-9.6283,-47.4243,2024-02-12 15:41:40.464,3.0
-0.5688,-0.0991,0.0894,-1.1063,15.7776,-51.5366,2024-02-12 15:41:40.496,3.0
-0.689,-0.1934,0.0549,-3.6774,19.7067,-49.8199,2024-02-12 15:41:40.497,3.0
-0.7285,-0.156,0.0361,-5.3787,5.3253,-43.2358,2024-02-12 15:41:40.521,3.0
-0.7366,-0.1375,0.0752,-7.7057,-11.5738,-35.8963,2024-02-12 15:41:40.537,3.0
-0.708,-0.0981,0.1333,-10.4599,-15.9073,-25.8408,2024-02-12 15:41:40.553,3.0
-0.6531,-0.0869,0.1582,-11.7111,-10.498,-16.5405,2024-02-12 15:41:40.569,3.0
-0.6372,-0.1301,0.1741,-12.2147,0.1221,-7.8201,2024-02-12 15:41:40.585,3.0
-0.6763,-0.155,0.209,-11.5585,10.8032,-2.4109,2024-02-12 15:41:40.601,3.0
-0.7261,-0.1558,0.2493,-8.3313,15.48,4.0741,2024-02-12 15:41:40.617,3.0
-0.7866,-0.1467,0.302,-5.1498,13.9084,11.5738,2024-02-12 15:41:40.641,3.0
-0.8064,-0.1399,0.3733,0.9308,6.752,18.364,2024-02-12 15:41:40.658,3.0
-0.8059,-0.1858,0.436,8.4152,-0.824,21.1563,2024-02-12 15:41:40.675,3.0
-0.8555,-0.2144,0.363,16.8533,-7.7896,19.4473,2024-02-12 15:41:40.692,3.0
-0.8804,-0.176,0.2539,23.8342,-15.5869,14.183,2024-02-12 15:41:40.717,3.0
-0.8806,-0.0876,0.1177,23.7579,-13.8321,3.0212,2024-02-12 15:41:40.759,3.0
-0.8604,0.0,0.0894,20.195,-1.2665,-9.8419,2024-02-12 15:41:40.759,3.0
-0.908,0.019,0.1304,13.1454,16.4261,-19.9432,2024-02-12 15:41:40.767,3.0
-0.9365,0.0498,0.1831,-0.4044,23.7045,-18.1351,2024-02-12 15:41:40.783,3.0
-0.853,-0.0447,0.1729,-16.9067,19.249,-15.8539,2024-02-12 15:41:40.816,3.0
-0.8542,-0.3079,0.229,-34.7595,47.4014,-35.8124,2024-02-12 15:41:40.816,3.0
-1.1602,-0.3352,0.3357,-16.0446,85.2203,-54.4128,2024-02-12 15:41:40.832,3.0
-1.3191,-0.7957,0.0659,6.5308,56.0379,-49.9878,2024-02-12 15:41:40.848,3.0
-1.3025,-0.7305,-0.1462,33.1955,20.2255,-58.8226,2024-02-12 15:41:40.872,3.0
-1.2551,-0.7522,-0.2788,55.2979,-23.8037,-53.9398,2024-02-12 15:41:40.897,3.0
-1.0801,-0.5356,-0.4214,68.4967,-65.2924,-35.1715,2024-02-12 15:41:40.905,3.0
-0.8059,-0.1138,-0.2666,52.002,-101.9211,-10.2158,2024-02-12 15:41:40.921,3.0
-0.6025,-0.1604,0.1743,56.9687,-79.2542,21.3699,2024-02-12 15:41:40.942,3.0
-0.5847,-0.2322,0.0625,85.0983,3.4485,34.0195,2024-02-12 15:41:40.966,3.0
-0.8164,-0.196,-0.2063,91.301,76.7212,10.8643,2024-02-12 15:41:40.985,3.0
-1.24,-0.2703,-0.1851,96.6568,70.3659,6.0043,2024-02-12 15:41:41.001,3.0
-1.3611,-0.3516,-0.1272,106.2927,8.461,29.1443,2024-02-12 15:41:41.009,3.0
-1.0325,-0.2993,-0.0471,117.3477,-39.3219,44.3954,2024-02-12 15:41:41.033,3.0
-0.7366,-0.2937,-0.0129,131.9199,-42.7322,46.2341,2024-02-12 15:41:41.050,3.0
-0.5171,-0.2317,-0.0566,143.0664,-10.7803,50.1633,2024-02-12 15:41:41.075,3.0
-0.4241,-0.1843,-0.0933,151.4969,27.153,45.6848,2024-02-12 15:41:41.100,3.0
-0.5044,-0.1968,-0.0959,155.2887,52.536,39.2532,2024-02-12 15:41:41.100,3.0
-0.6069,-0.1624,-0.0369,157.6462,60.4324,34.5612,2024-02-12 15:41:41.117,3.0
-0.6079,-0.0801,-0.0129,158.7677,48.0576,30.5634,2024-02-12 15:41:41.142,3.0
-0.5486,-0.0225,-0.0786,157.4631,44.3039,25.8408,2024-02-12 15:41:41.158,3.0
-0.5632,0.0798,-0.0388,152.153,56.0837,21.9269,2024-02-12 15:41:41.166,3.0
-0.6196,0.2458,0.0151,143.6844,70.7016,19.249,2024-02-12 15:41:41.191,3.0
-0.8206,0.366,0.0903,130.7526,66.124,13.916,2024-02-12 15:41:41.216,3.0
-0.9858,0.3408,0.071,120.0027,36.3846,12.3215,2024-02-12 15:41:41.234,3.0
-0.979,0.3699,0.0105,106.7276,-17.189,12.8784,2024-02-12 15:41:41.242,3.0
-0.8188,0.3777,-0.2292,82.1991,-74.1119,8.3923,2024-02-12 15:41:41.267,3.0
-0.5569,0.2717,-0.592,39.0015,-89.3936,-2.8839,2024-02-12 15:41:41.283,3.0
-0.4165,0.2668,-0.3181,13.0157,-47.142,-9.8953,2024-02-12 15:41:41.300,3.0
-0.5566,0.0667,0.2915,2.9755,37.0102,-19.0048,2024-02-12 15:41:41.318,3.0
-0.8789,0.054,0.1704,16.4719,71.3882,-18.486,2024-02-12 15:41:41.343,3.0
-1.0374,0.1243,-0.3767,3.7613,45.8755,-3.8452,2024-02-12 15:41:41.354,3.0
-1.1548,0.0327,-0.2866,-28.9383,13.176,9.1858,2024-02-12 15:41:41.378,3.0
-1.2139,-0.02,0.0276,-36.0565,6.2485,33.7448,2024-02-12 15:41:41.394,3.0
-1.0466,0.1968,-0.0698,-32.7759,2.5864,40.1306,2024-02-12 15:41:41.418,3.0
-1.1052,0.6196,-0.1768,-36.6669,10.7803,41.1835,2024-02-12 15:41:41.434,3.0
-1.1252,0.7559,-0.3289,-51.239,23.8724,37.5519,2024-02-12 15:41:41.450,3.0
-0.7297,-0.0442,-0.3247,-72.3419,-30.7999,12.4435,2024-02-12 15:41:41.466,3.0
-0.7903,-0.4756,-0.083,-55.0003,-71.6629,-5.5008,2024-02-12 15:41:41.482,3.0
-0.9265,-0.7769,-0.0344,-33.3862,-24.6506,-12.7182,2024-02-12 15:41:41.507,3.0
-1.1421,-0.7974,-0.0022,-18.7759,36.0336,-8.1024,2024-02-12 15:41:41.515,3.0
-1.1099,-0.1802,0.0518,3.6087,13.3438,13.2675,2024-02-12 15:41:41.539,3.0
-0.8328,0.0371,-0.1228,-23.1247,-79.1626,3.5782,2024-02-12 15:41:41.555,3.0
-0.8486,0.0881,0.0583,-39.7339,-100.5096,-9.964,2024-02-12 15:41:41.571,3.0
-0.6143,0.0002,0.0557,-50.705,-61.9736,-22.1939,2024-02-12 15:41:41.587,3.0
-0.4512,-0.0146,-0.0391,-55.0156,-14.0305,-32.135,2024-02-12 15:41:41.619,3.0
-0.4182,0.0566,-0.0298,-63.5757,14.4958,-48.2178,2024-02-12 15:41:41.627,3.0
-0.6702,-0.0122,0.0935,-72.1054,28.5339,-65.979,2024-02-12 15:41:41.651,3.0
-0.9233,-0.1399,0.1226,-73.494,18.7607,-61.1801,2024-02-12 15:41:41.660,3.0
-0.8359,-0.2583,0.0481,-78.6514,-14.3204,-50.8499,2024-02-12 15:41:41.684,3.0
-0.6448,-0.3257,0.0264,-84.9686,-33.1802,-46.1884,2024-02-12 15:41:41.700,3.0
-0.5605,-0.2939,0.1299,-85.7086,-18.7302,-41.3361,2024-02-12 15:41:41.716,3.0
-0.604,-0.1982,0.1313,-82.8476,2.5711,-34.6298,2024-02-12 15:41:41.741,3.0
-0.6973,-0.1121,0.083,-84.9457,10.9177,-25.8484,2024-02-12 15:41:41.750,3.0
-0.7678,-0.073,0.1343,-86.4334,6.9351,-12.413,2024-02-12 15:41:41.774,3.0
-0.7712,-0.0967,0.1802,-84.7778,-0.9842,0.0229,2024-02-12 15:41:41.790,3.0
-0.7004,-0.1123,0.1855,-82.1686,-6.7368,12.619,2024-02-12 15:41:41.815,3.0
-0.6575,-0.0767,0.241,-81.81,-4.3716,16.3574,2024-02-12 15:41:41.823,3.0
-0.7554,-0.094,0.3284,-75.0046,6.1188,19.104,2024-02-12 15:41:41.848,3.0
-0.7957,-0.155,0.24,-68.2907,6.3705,16.5405,2024-02-12 15:41:41.864,3.0
-0.897,-0.1797,0.2522,-61.2488,1.7166,12.2681,2024-02-12 15:41:41.881,3.0
-0.873,-0.2397,0.2271,-50.5524,-5.9662,4.5395,2024-02-12 15:41:41.898,3.0
-0.8926,-0.2344,0.196,-43.8995,1.442,-17.5476,2024-02-12 15:41:41.922,3.0
-1.0283,-0.1956,0.2405,-40.8478,12.7792,-29.892,2024-02-12 15:41:41.938,3.0
-1.1223,-0.0833,0.3123,-43.2129,12.5427,-28.5263,2024-02-12 15:41:41.954,3.0
-1.0791,0.0327,0.3782,-50.5142,-4.9515,-18.9362,2024-02-12 15:41:41.970,3.0
-0.8689,-0.0071,0.3699,-58.2123,-17.0135,-10.6659,2024-02-12 15:41:41.986,3.0
-0.7778,-0.3032,0.2708,-69.0308,13.5193,-30.5481,2024-02-12 15:41:42.010,3.0
-1.0012,-0.3591,0.2346,-63.4995,50.4532,-53.215,2024-02-12 15:41:42.027,3.0
-1.2314,-0.6733,0.1021,-44.0521,64.3921,-68.5043,2024-02-12 15:41:42.042,3.0
-1.4543,-0.6536,0.0452,-4.8904,34.8816,-69.191,2024-02-12 15:41:42.067,3.0
-1.3672,-0.6191,-0.262,16.4261,-39.3066,-37.5061,2024-02-12 15:41:42.083,3.0
-0.7559,-0.1287,-0.4153,3.0289,-114.624,-20.9579,2024-02-12 15:41:42.100,3.0
-0.429,0.0396,-0.375,-20.1492,-112.1597,2.0599,2024-02-12 15:41:42.116,3.0
-0.1538,-0.1067,-0.1824,-32.0587,-49.4461,6.5079,2024-02-12 15:41:42.133,3.0
-0.4795,-0.1025,-0.0166,-34.1187,39.2685,-8.0795,2024-02-12 15:41:42.151,3.0
-1.1111,-0.002,0.1223,-27.2141,94.4519,-18.9743,2024-02-12 15:41:42.167,3.0
-1.6045,-0.1045,0.01,-10.1166,94.8639,1.7853,2024-02-12 15:41:42.184,3.0
-1.5769,-0.1428,-0.1555,-10.0479,28.2898,36.0413,2024-02-12 15:41:42.208,3.0
-1.1978,-0.1067,-0.1985,-18.7988,-35.5911,47.7448,2024-02-12 15:41:42.233,3.0
-0.8533,-0.189,-0.1055,-22.1405,-53.3447,47.0505,2024-02-12 15:41:42.241,3.0
-0.7078,-0.2258,0.0076,-11.9019,-33.0811,51.6129,2024-02-12 15:41:42.266,3.0
-0.6399,-0.2,-0.0315,-6.3171,2.0599,57.2891,2024-02-12 15:41:42.274,3.0
-0.6575,-0.1489,0.0125,-2.1667,16.4032,56.9077,2024-02-12 15:41:42.299,3.0
-0.7939,-0.0723,0.1277,4.1199,14.9612,57.0221,2024-02-12 15:41:42.315,3.0
-0.8306,-0.0369,0.1501,11.8561,3.6697,59.9747,2024-02-12 15:41:42.331,3.0
-0.6287,-0.0566,0.0657,13.7177,-19.371,53.7262,2024-02-12 15:41:42.355,3.0
-0.4456,-0.0168,0.0669,15.1672,-30.8685,39.093,2024-02-12 15:41:42.371,3.0
-0.3115,0.0549,0.1021,14.9765,-18.5776,21.7514,2024-02-12 15:41:42.388,3.0
-0.2639,0.1182,0.0876,16.0065,11.8408,3.0746,2024-02-12 15:41:42.404,3.0
-0.313,0.1514,0.1233,14.7324,37.0407,-8.049,2024-02-12 15:41:42.429,3.0
-0.4448,0.157,0.1484,9.5367,48.2864,-17.3035,2024-02-12 15:41:42.437,3.0
-0.6453,0.106,0.1987,3.4332,46.051,-25.116,2024-02-12 15:41:42.453,3.0
-0.9023,0.0786,0.2686,2.8458,25.4364,-20.7138,2024-02-12 15:41:42.479,3.0
-0.947,0.0061,0.1489,1.7548,-5.0278,-8.2245,2024-02-12 15:41:42.496,3.0
-0.7925,-0.0549,0.0024,-11.3297,-22.0947,-6.5155,2024-02-12 15:41:42.512,3.0
-0.8149,0.0161,0.002,-14.183,16.2277,-7.2861,2024-02-12 15:41:42.536,3.0
-0.9814,0.0598,0.1628,-14.9155,75.1801,-0.9766,2024-02-12 15:41:42.552,3.0
-1.0886,0.0156,0.3408,-8.9417,77.7359,3.9749,2024-02-12 15:41:42.564,3.0
-1.1257,-0.0305,0.3792,2.8152,43.6935,8.2169,2024-02-12 15:41:42.588,3.0
-1.2048,0.0193,0.145,16.0217,55.4886,16.2125,2024-02-12 15:41:42.612,3.0
-1.4324,0.0452,-0.0417,14.6255,91.2857,21.0724,2024-02-12 15:41:42.612,3.0
-1.5454,0.2993,-0.4111,11.6577,63.3011,49.4003,2024-02-12 15:41:42.636,3.0
-1.3188,0.3699,-0.7847,-20.1263,5.5161,59.3185,2024-02-12 15:41:42.660,3.0
-1.209,0.1213,-0.5378,-35.6598,-53.1616,61.6913,2024-02-12 15:41:42.672,3.0
-0.7522,-0.2144,-0.3809,-32.0587,-95.5353,57.579,2024-02-12 15:41:42.688,3.0
-0.363,-0.3557,-0.0425,-18.0283,-103.5233,23.8342,2024-02-12 15:41:42.704,3.0
-0.2183,-0.2712,0.1912,5.7907,-64.0335,-23.4604,2024-02-12 15:41:42.729,3.0
-0.4971,-0.1606,0.1843,27.7405,21.8201,-48.8892,2024-02-12 15:41:42.746,3.0
-0.8838,-0.1016,-0.0862,37.6358,95.5963,-56.5186,2024-02-12 15:41:42.764,3.0
-1.2856,0.0522,-0.2117,28.9688,97.8317,-48.8968,2024-02-12 15:41:42.781,3.0
-1.3569,0.1379,-0.312,7.4387,28.7857,-41.9693,2024-02-12 15:41:42.798,3.0
-1.1904,-0.0037,-0.1201,-6.1111,-82.6721,-43.8843,2024-02-12 15:41:42.814,3.0
-0.8975,-0.0571,-0.1045,-5.806,-111.2366,-36.5448,2024-02-12 15:41:42.831,3.0
-0.5017,-0.0239,-0.0828,-8.7204,-89.653,-38.2538,2024-02-12 15:41:42.855,3.0
-0.3215,-0.04,-0.1189,-13.7482,-58.2733,-48.9273,2024-02-12 15:41:42.871,3.0
-0.4146,-0.1121,-0.0764,-24.9634,-16.3574,-52.2614,2024-02-12 15:41:42.888,3.0
-0.5605,-0.1528,0.0166,-35.08,14.3204,-48.912,2024-02-12 15:41:42.904,3.0
-0.6863,-0.1277,0.0447,-38.7802,15.3503,-42.0303,2024-02-12 15:41:42.921,3.0
-0.7366,-0.074,0.0295,-41.4124,-10.4523,-30.4489,2024-02-12 15:41:42.945,3.0
-0.6616,-0.0664,0.0232,-44.5251,-25.1694,-15.2435,2024-02-12 15:41:42.969,3.0
-0.5317,-0.0837,0.0486,-48.172,-21.9421,-4.8676,2024-02-12 15:41:42.978,3.0
-0.4875,-0.1382,0.1084,-50.3235,1.8005,2.8458,2024-02-12 15:41:43.002,3.0
-0.5757,-0.1755,0.2297,-48.7595,24.8413,10.2005,2024-02-12 15:41:43.019,3.0
-0.7764,-0.1621,0.3496,-41.6336,34.9274,19.6686,2024-02-12 15:41:43.035,3.0
-0.897,-0.1479,0.3445,-32.8751,27.3056,28.1677,2024-02-12 15:41:43.051,3.0
-0.9517,-0.2227,0.2664,-28.6255,-0.2899,28.0762,2024-02-12 15:41:43.067,3.0
-0.937,-0.2505,0.0874,-24.2996,-21.9879,18.4326,2024-02-12 15:41:43.091,3.0
-0.8879,-0.0996,0.0388,-24.5514,-26.3824,10.2158,2024-02-12 15:41:43.108,3.0
-0.7974,0.0522,0.1279,-18.8522,-11.8332,-4.5395,2024-02-12 15:41:43.124,3.0
-0.9038,-0.0613,0.2937,-24.826,2.0905,-25.2838,2024-02-12 15:41:43.150,3.0
-1.0654,-0.0999,0.5144,-23.6053,1.2283,-21.904,2024-02-12 15:41:43.166,3.0
-0.958,-0.2063,0.217,-23.201,-7.0801,-14.4119,2024-02-12 15:41:43.182,3.0
-0.9951,-0.3267,0.1489,-37.5519,9.8114,-47.1802,2024-02-12 15:41:43.200,3.0
-1.3184,-0.4414,0.1345,-28.7094,17.6849,-77.8961,2024-02-12 15:41:43.217,3.0
-1.447,-0.811,0.0701,1.5869,6.5155,-73.143,2024-02-12 15:41:43.233,3.0
-1.3784,-0.552,-0.1553,52.1698,-46.8445,-50.0336,2024-02-12 15:41:43.257,3.0
-0.9346,-0.3311,-0.4541,34.5993,-88.2034,-31.9595,2024-02-12 15:41:43.281,3.0
-0.6865,-0.1123,-0.3591,14.534,-94.1238,-9.4681,2024-02-12 15:41:43.297,3.0
-0.5264,-0.1182,-0.3491,-3.5019,-51.6129,13.4583,2024-02-12 15:41:43.305,3.0
-0.7539,0.0398,-0.1121,-19.4016,11.9095,21.1639,2024-02-12 15:41:43.329,3.0
-1.147,0.2207,0.0564,-19.3176,40.6189,20.2179,2024-02-12 15:41:43.346,3.0
-1.4543,0.1572,-0.0522,-5.9738,47.6761,30.5252,2024-02-12 15:41:43.362,3.0
-1.3337,-0.0354,-0.1135,-12.7029,-24.8795,44.1818,2024-02-12 15:41:43.378,3.0
-1.1663,-0.2937,0.0881,-3.6774,-95.787,51.3382,2024-02-12 15:41:43.398,3.0
-0.8176,-0.3984,0.1396,11.5967,-116.4169,61.1038,2024-02-12 15:41:43.424,3.0
-0.5774,-0.4338,0.1091,29.2358,-97.2672,70.7092,2024-02-12 15:41:43.432,3.0
-0.3445,-0.3728,0.0747,42.9153,-62.2482,66.7572,2024-02-12 15:41:43.448,3.0
-0.271,-0.1873,0.1538,50.1633,-17.5552,52.1851,2024-02-12 15:41:43.472,3.0
-0.3408,0.0181,0.1858,55.1224,15.0681,37.468,2024-02-12 15:41:43.481,3.0
-0.4358,0.1409,0.1604,56.0608,24.7803,28.389,2024-02-12 15:41:43.507,3.0
-0.5134,0.2097,0.1169,51.5976,24.0631,21.1945,2024-02-12 15:41:43.531,3.0
-0.4756,0.1851,0.0852,41.9159,20.6375,12.6801,2024-02-12 15:41:43.540,3.0
-0.4468,0.1348,0.2009,34.584,14.2059,4.303,2024-02-12 15:41:43.557,3.0
-0.4417,0.0757,0.3203,34.3704,19.0277,-5.3558,2024-02-12 15:41:43.581,3.0
-0.5164,0.062,0.4292,33.8593,26.535,-16.4642,2024-02-12 15:41:43.597,3.0
-0.6211,0.1006,0.4253,35.8353,28.2745,-23.5443,2024-02-12 15:41:43.614,3.0
-0.8848,0.147,0.3638,32.7835,19.0964,-16.4413,2024-02-12 15:41:43.630,3.0
-0.8477,0.0945,0.2715,30.1514,-6.7291,-5.8823,2024-02-12 15:41:43.655,3.0
-0.8147,0.0896,-0.0583,22.4838,-5.4779,-3.5858,2024-02-12 15:41:43.671,3.0
-0.822,0.0935,-0.1038,9.1171,50.2472,-0.5341,2024-02-12 15:41:43.684,3.0
-1.0251,0.054,0.304,0.824,87.3108,-1.7776,2024-02-12 15:41:43.700,3.0
-1.0945,0.0361,0.4907,12.2833,84.5795,-3.0136,2024-02-12 15:41:43.724,3.0
-1.1516,-0.0193,0.5408,23.5672,59.9518,-8.9722,2024-02-12 15:41:43.742,3.0
-1.1472,0.1182,0.3735,40.7333,60.4782,-1.5869,2024-02-12 15:41:43.758,3.0
-1.374,-0.0198,0.05,37.0407,106.5445,4.1733,2024-02-12 15:41:43.774,3.0
-1.6091,0.2288,-0.1018,34.4772,84.9762,36.1938,2024-02-12 15:41:43.792,3.0
-1.3,0.2983,-0.6414,15.5258,7.637,58.2275,2024-02-12 15:41:43.808,3.0
-1.1331,0.3171,-0.4988,-11.322,-46.4554,57.2281,2024-02-12 15:41:43.833,3.0
-0.8438,0.0496,-0.1902,-12.8784,-69.4962,60.2341,2024-02-12 15:41:43.850,3.0
-0.446,-0.1511,-0.0483,-6.5002,-77.8427,40.1077,2024-02-12 15:41:43.866,3.0
-0.3372,-0.218,0.1094,4.5547,-48.3704,10.8414,2024-02-12 15:41:43.883,3.0
-0.46,-0.2351,0.24,23.2468,24.5667,-21.5759,2024-02-12 15:41:43.901,3.0
-0.8311,-0.1509,-0.0659,28.4729,79.0863,-48.1644,2024-02-12 15:41:43.917,3.0
-1.3259,-0.0056,-0.2656,15.892,86.9675,-49.0189,2024-02-12 15:41:43.941,3.0
-1.4417,0.0757,-0.2166,-6.3477,23.0789,-35.2554,2024-02-12 15:41:43.958,3.0
-1.2454,0.1379,-0.0647,-21.6446,-90.1642,-38.3911,2024-02-12 15:41:43.984,3.0
-0.9158,0.1445,-0.0908,-33.0124,-125.4349,-32.2266,2024-02-12 15:41:43.992,3.0
-0.5059,0.1716,-0.0671,-45.7687,-107.3532,-31.8146,2024-02-12 15:41:44.009,3.0
-0.2126,0.1047,-0.0393,-59.5703,-77.9572,-47.0886,2024-02-12 15:41:44.033,3.0
-0.2498,-0.0608,0.0005,-68.8019,-41.0156,-56.8771,2024-02-12 15:41:44.041,3.0
-0.4358,-0.2258,0.0789,-70.5109,0.3662,-57.2815,2024-02-12 15:41:44.062,3.0
-0.6846,-0.2754,0.127,-60.3027,7.9575,-50.1785,2024-02-12 15:41:44.078,3.0
-0.7234,-0.2339,0.1084,-54.2221,-16.9678,-37.0941,2024-02-12 15:41:44.102,3.0
-0.6533,-0.2151,0.075,-50.8652,-43.3731,-22.1863,2024-02-12 15:41:44.119,3.0
-0.562,-0.1931,0.1431,-50.5295,-44.342,-7.5378,2024-02-12 15:41:44.135,3.0
-0.4629,-0.1646,0.2422,-44.4107,-16.5405,6.1264,2024-02-12 15:41:44.159,3.0
-0.4587,-0.1292,0.3201,-37.0941,8.4305,16.0065,2024-02-12 15:41:44.176,3.0
-0.5815,-0.1021,0.3486,-29.0298,26.8936,27.0844,2024-02-12 15:41:44.191,3.0
-0.6919,-0.0986,0.334,-24.1699,28.4348,35.9573,2024-02-12 15:41:44.210,3.0
-0.76,-0.1575,0.322,-17.9367,28.9993,36.3846,2024-02-12 15:41:44.227,3.0
-0.853,-0.1863,0.3525,-17.0364,29.1977,21.6217,2024-02-12 15:41:44.243,3.0
-0.9795,-0.1353,0.1904,-19.1727,41.5726,-1.8005,2024-02-12 15:41:44.259,3.0
-0.9551,-0.0078,0.0703,-17.4561,34.1644,-15.48,2024-02-12 15:41:44.275,3.0
-0.9795,-0.0989,0.2368,-27.977,24.6201,-30.014,2024-02-12 15:41:44.301,3.0
-1.0623,-0.2502,0.6445,-25.0778,29.0451,-30.6854,2024-02-12 15:41:44.317,3.0
-1.1238,-0.1409,0.5056,-20.6299,31.0822,-21.6522,2024-02-12 15:41:44.334,3.0
-0.9636,-0.5037,0.1265,-37.6129,33.0124,-34.8358,2024-02-12 15:41:44.350,3.0
-1.21,-0.407,0.4365,-19.6457,44.2276,-67.9703,2024-02-12 15:41:44.367,3.0
-1.3784,-0.4685,0.0615,-17.4255,22.7127,-64.1022,2024-02-12 15:41:44.383,3.0
-1.2173,-0.4641,0.0586,16.0751,8.3008,-74.5697,2024-02-12 15:41:44.412,3.0
-1.342,-0.3789,-0.3081,29.4113,-20.9732,-67.6727,2024-02-12 15:41:44.417,3.0
-1.0007,-0.2419,-0.397,23.6969,-57.9605,-45.2499,2024-02-12 15:41:44.442,3.0
-0.666,-0.002,-0.2087,-2.1057,-69.5496,-15.3885,2024-02-12 15:41:44.458,3.0
-0.4678,-0.0647,0.165,-12.8021,-31.1813,6.9046,2024-02-12 15:41:44.474,3.0
-0.6697,-0.1443,0.1841,1.0376,56.1142,19.0735,2024-02-12 15:41:44.491,3.0
-1.0747,0.0132,-0.0232,-3.9673,99.7467,16.716,2024-02-12 15:41:44.516,3.0
-1.4041,-0.0132,-0.0352,0.2594,77.5299,19.371,2024-02-12 15:41:44.550,3.0
-1.5769,-0.1321,-0.1008,9.0332,17.6544,33.1879,2024-02-12 15:41:44.550,3.0
-1.3684,-0.0974,-0.0371,10.2692,-45.2423,50.4913,2024-02-12 15:41:44.567,3.0
-0.9407,-0.1951,-0.0352,17.1738,-81.6727,56.7245,2024-02-12 15:41:44.583,3.0
-0.5549,-0.2217,-0.0801,23.2468,-72.7081,63.3469,2024-02-12 15:41:44.608,3.0
-0.3376,-0.2036,-0.0461,31.3644,-40.1611,66.4291,2024-02-12 15:41:44.624,3.0
-0.3108,-0.1655,-0.02,40.3595,-1.2436,59.7305,2024-02-12 15:41:44.641,3.0
-0.467,-0.0969,0.0493,48.1949,25.5814,48.2407,2024-02-12 15:41:44.658,3.0
-0.6218,-0.0781,0.1045,51.9257,21.1792,41.5649,2024-02-12 15:41:44.682,3.0
-0.6785,-0.0112,0.1423,55.481,2.3499,39.7797,2024-02-12 15:41:44.691,3.0
-0.5798,0.1064,0.0828,58.9142,-8.5907,32.3105,2024-02-12 15:41:44.708,3.0
-0.4431,0.1584,0.0161,55.0613,-12.4054,16.5253,2024-02-12 15:41:44.724,3.0
-0.406,0.1409,0.0134,50.5142,-11.6196,2.8763,2024-02-12 15:41:44.741,3.0
-0.3855,0.1277,0.1052,43.1747,-3.0518,-8.6136,2024-02-12 15:41:44.766,3.0
-0.4663,0.1069,0.2314,36.3159,9.3002,-19.2032,2024-02-12 15:41:44.783,3.0
-0.6335,0.0791,0.3347,30.899,17.8223,-27.1912,2024-02-12 15:41:44.800,3.0
-0.8779,0.0945,0.4114,26.5732,17.3721,-26.1917,2024-02-12 15:41:44.825,3.0
-0.9136,0.1912,0.2869,25.3067,5.6992,-13.7405,2024-02-12 15:41:44.833,3.0
-0.8606,0.2129,0.0088,9.6664,-8.8043,-1.9226,2024-02-12 15:41:44.850,3.0
-0.7932,0.1433,0.0293,-12.3444,5.0583,-8.1558,2024-02-12 15:41:44.867,3.0
-0.854,-0.022,0.2617,-18.5394,44.1513,-18.7149,2024-02-12 15:41:44.892,3.0
-1.041,-0.0125,0.4143,-10.6888,71.1746,-20.5002,2024-02-12 15:41:44.909,3.0
-1.1311,0.054,0.3923,-0.0381,60.5087,-20.2255,2024-02-12 15:41:44.925,3.0
-1.2207,0.2441,0.0339,6.2943,58.9066,-11.2839,2024-02-12 15:41:44.942,3.0
-1.4082,0.1326,-0.0879,-9.3918,76.5839,-5.4321,2024-02-12 15:41:44.958,3.0
-1.6489,0.272,-0.0347,-13.3514,56.8237,17.4713,2024-02-12 15:41:44.974,3.0
-1.5305,0.4182,-0.4963,-20.0424,21.3165,48.4085,2024-02-12 15:41:44.999,3.0
-1.1248,0.4258,-0.7949,-53.7491,-41.4581,58.4793,2024-02-12 15:41:45.008,3.0
-0.8804,0.1162,-0.519,-72.8989,-94.2917,60.7147,2024-02-12 15:41:45.028,3.0
-0.5198,-0.2739,-0.0774,-75.5386,-118.3777,49.0494,2024-02-12 15:41:45.044,3.0
-0.2043,-0.4443,0.2708,-52.9099,-92.4606,12.5046,2024-02-12 15:41:45.084,3.0
-0.3184,-0.3062,0.3193,-20.8435,-14.8392,-31.2805,2024-02-12 15:41:45.084,3.0
-0.6409,-0.1875,0.0652,-5.8823,66.1392,-55.2216,2024-02-12 15:41:45.109,3.0
-1.0696,-0.0959,-0.0891,-11.0092,91.8655,-65.6891,2024-02-12 15:41:45.109,3.0
-1.4426,0.1067,-0.2202,-26.329,57.0297,-52.5131,2024-02-12 15:41:45.133,3.0
-1.3369,0.1165,-0.1519,-51.2543,-27.4506,-42.16,2024-02-12 15:41:45.152,3.0
-1.1177,0.0374,-0.0061,-55.7404,-97.3129,-43.6783,2024-02-12 15:41:45.160,3.0
-0.7637,0.0242,-0.0874,-60.2493,-109.5123,-37.1475,2024-02-12 15:41:45.176,3.0
-0.4219,0.0186,-0.1184,-70.3125,-91.9418,-39.6042,2024-02-12 15:41:45.193,3.0
-0.3152,-0.0413,-0.0991,-81.2531,-57.6553,-48.4467,2024-02-12 15:41:45.209,3.0
-0.4077,-0.1057,-0.0525,-89.4241,-20.2942,-50.6668,2024-02-12 15:41:45.244,3.0
-0.5925,-0.1174,0.0183,-94.2688,6.1188,-43.9987,2024-02-12 15:41:45.244,3.0
-0.7034,-0.1348,0.0332,-97.641,13.2141,-35.1791,2024-02-12 15:41:45.252,3.0
-0.7126,-0.1331,0.0715,-99.3042,-2.4033,-25.8331,2024-02-12 15:41:45.276,3.0
-0.6567,-0.1226,0.0635,-98.8235,-23.4756,-14.8926,2024-02-12 15:41:45.285,3.0
-0.5435,-0.1436,0.0815,-99.8611,-25.2151,-3.7994,2024-02-12 15:41:45.301,3.0
-0.4419,-0.1729,0.1443,-97.9156,-8.4534,4.303,2024-02-12 15:41:45.325,3.0
-0.4932,-0.198,0.2468,-90.4846,17.8909,10.5362,2024-02-12 15:41:45.345,3.0
-0.6401,-0.2412,0.3308,-77.0798,37.6587,18.1656,2024-02-12 15:41:45.353,3.0
-0.7737,-0.2905,0.3479,-60.3104,34.2255,27.7328,2024-02-12 15:41:45.369,3.0
-0.8184,-0.281,0.3298,-48.9426,15.6784,27.5116,2024-02-12 15:41:45.398,3.0
-0.8108,-0.366,0.3447,-47.5159,-0.473,12.9166,2024-02-12 15:41:45.407,3.0
-0.925,-0.2932,0.2925,-28.9001,9.6588,-2.5024,2024-02-12 15:41:45.431,3.0
-0.9688,-0.1904,0.1016,-10.1852,20.2637,-13.4201,2024-02-12 15:41:45.463,3.0
-0.9749,-0.0298,0.0986,-5.7068,20.9351,-22.2473,2024-02-12 15:41:45.463,3.0
-1.0315,0.0581,0.3088,-19.31,12.6495,-29.892,2024-02-12 15:41:45.519,3.0
-1.0352,0.0757,0.4031,-27.8702,-0.8011,-26.268,2024-02-12 15:41:45.519,3.0
-0.9658,0.0745,0.3701,-34.935,-22.5983,-15.0986,2024-02-12 15:41:45.519,3.0
-0.729,-0.1487,0.1504,-50.4684,-33.2565,-7.4768,2024-02-12 15:41:45.543,3.0
-0.7903,-0.1509,0.2068,-57.7164,31.7535,-43.8919,2024-02-12 15:41:45.559,3.0
-1.2419,-0.2888,0.0913,-56.2286,48.3246,-73.4711,2024-02-12 15:41:45.559,3.0
-1.3767,-0.5305,-0.1777,-37.7121,34.2102,-56.3507,2024-02-12 15:41:45.587,3.0
-1.3127,-0.325,-0.5747,-36.8347,-34.79,-54.4968,2024-02-12 15:41:45.612,3.0
-1.0674,-0.1025,-0.3667,-60.1654,-89.3631,-25.238,2024-02-12 15:41:45.620,3.0
-0.6565,0.0166,-0.2578,-66.0324,-86.9293,6.6757,2024-02-12 15:41:45.636,3.0
-0.5288,0.1353,-0.2224,-81.7032,-3.479,7.2021,2024-02-12 15:41:45.652,3.0
-0.8594,0.2725,-0.019,-83.0383,62.0804,16.7007,2024-02-12 15:41:45.684,3.0
-1.1309,0.095,-0.0955,-80.0552,73.7762,28.5721,2024-02-12 15:41:45.684,3.0
-1.2642,-0.2476,-0.0742,-72.0291,58.96,22.4304,2024-02-12 15:41:45.708,3.0
-1.4067,-0.3628,0.0801,-65.9409,4.4785,28.4805,2024-02-12 15:41:45.716,3.0
-1.2795,-0.2827,0.2056,-51.3077,-51.6434,46.8445,2024-02-12 15:41:45.733,3.0
-0.9729,-0.209,0.0315,-41.4734,-72.5937,56.3507,2024-02-12 15:41:45.749,3.0
-0.6208,-0.1797,-0.1003,-37.5214,-65.1932,60.7605,2024-02-12 15:41:45.773,3.0
-0.4309,-0.1184,-0.0002,-34.9808,-47.3709,55.6564,2024-02-12 15:41:45.789,3.0
-0.3948,-0.0232,0.1111,-29.2206,-23.3002,45.2118,2024-02-12 15:41:45.805,3.0
-0.4177,-0.0171,0.115,-25.9399,-0.6714,35.2249,2024-02-12 15:41:45.830,3.0
-0.4941,-0.0146,0.1423,-20.3094,9.6512,26.5198,2024-02-12 15:41:45.847,3.0
-0.4954,0.0181,0.1526,-14.7934,13.9008,19.0887,2024-02-12 15:41:45.863,3.0
-0.4602,0.0645,0.1318,-9.2316,20.5307,11.5509,2024-02-12 15:41:45.880,3.0
-0.4536,0.1184,0.1902,-6.5842,30.8151,0.5951,2024-02-12 15:41:45.896,3.0
-0.509,0.1221,0.2847,-5.5389,31.1203,-7.9575,2024-02-12 15:41:45.920,3.0
-0.5908,0.0872,0.3538,-1.358,28.2288,-18.0817,2024-02-12 15:41:45.936,3.0
-0.7524,0.0327,0.3311,3.7689,22.0642,-24.3759,2024-02-12 15:41:45.952,3.0
-0.9058,0.0383,0.2187,8.9951,8.1406,-20.3476,2024-02-12 15:41:45.968,3.0
-0.8713,-0.0039,0.062,5.8823,-12.2299,-8.5068,2024-02-12 15:41:45.992,3.0
-0.7952,-0.0415,0.0605,0.1831,-8.8196,-8.9798,2024-02-12 15:41:46.008,3.0
-0.8303,-0.0342,0.2117,4.0054,30.3955,-11.2839,2024-02-12 15:41:46.024,3.0
-0.9873,-0.0044,0.3416,8.0185,69.9692,-8.5373,2024-02-12 15:41:46.041,3.0
-1.0637,0.0657,0.373,19.5236,81.0013,-5.0812,2024-02-12 15:41:46.057,3.0
-1.0815,0.1931,0.1448,24.7879,63.8733,-3.6697,2024-02-12 15:41:46.082,3.0
-1.1389,0.408,-0.1377,20.9656,73.9059,1.9684,2024-02-12 15:41:46.090,3.0
-1.4253,0.2495,-0.0872,1.1749,85.0525,1.7624,2024-02-12 15:41:46.106,3.0
-1.5735,0.3118,-0.2949,-2.6093,39.8788,30.3421,2024-02-12 15:41:46.122,3.0
-1.3525,0.3745,-0.8188,-26.1917,-3.1433,51.6129,2024-02-12 15:41:46.147,3.0
-1.1511,0.2451,-0.7856,-59.6619,-36.4685,56.6177,2024-02-12 15:41:46.163,3.0
-0.8896,-0.1211,-0.3975,-69.7174,-73.1812,54.3976,2024-02-12 15:41:46.179,3.0
-0.52,-0.3347,-0.0061,-57.6172,-99.2737,30.6244,2024-02-12 15:41:46.196,3.0
-0.2869,-0.2444,0.1997,-39.4516,-96.8399,-5.1193,2024-02-12 15:41:46.212,3.0
-0.4001,-0.1577,0.2312,-21.8811,-28.8467,-32.5012,2024-02-12 15:41:46.229,3.0
-0.7019,-0.1758,0.0244,-10.91,55.4199,-49.6445,2024-02-12 15:41:46.245,3.0
-1.1782,-0.0715,-0.177,-14.0762,92.308,-49.7589,2024-02-12 15:41:46.262,3.0
-1.4983,0.1125,-0.394,-32.608,67.0242,-36.6287,2024-02-12 15:41:46.278,3.0
-1.3945,0.0996,-0.2578,-57.4646,-29.48,-34.2255,2024-02-12 15:41:46.302,3.0
-1.2205,-0.0352,-0.0989,-58.7463,-116.8823,-29.7623,2024-02-12 15:41:46.318,3.0
-0.834,-0.0505,-0.1335,-62.3474,-134.8419,-21.5073,2024-02-12 15:41:46.342,3.0
-0.4365,-0.012,-0.1438,-71.7316,-110.3363,-27.5421,2024-02-12 15:41:46.342,3.0
-0.2747,-0.0264,-0.0979,-82.9544,-62.3398,-42.5797,2024-02-12 15:41:46.367,3.0
-0.3828,-0.0503,-0.0864,-91.9647,-15.5792,-47.7905,2024-02-12 15:41:46.383,3.0
-0.5623,-0.0862,-0.0664,-98.732,13.3209,-43.9453,2024-02-12 15:41:46.399,3.0
-0.7026,-0.0923,-0.051,-104.8203,10.6125,-34.7443,2024-02-12 15:41:46.424,3.0
-0.6824,-0.0879,0.0078,-106.72,-19.1498,-26.4359,2024-02-12 15:41:46.444,3.0
-0.6055,-0.0959,0.0188,-106.7429,-35.9421,-13.382,2024-02-12 15:41:46.461,3.0
-0.4692,-0.1453,0.0574,-106.3995,-21.8964,0.1678,2024-02-12 15:41:46.477,3.0
-0.4312,-0.22,0.1218,-102.2186,6.1417,2.8152,2024-02-12 15:41:46.502,3.0
-0.5459,-0.241,0.2114,-93.9407,28.0075,3.4714,2024-02-12 15:41:46.511,3.0
-0.7517,-0.2581,0.3306,-79.2847,35.6369,6.3782,2024-02-12 15:41:46.535,3.0
-0.9478,-0.3152,0.4214,-53.5202,16.8228,9.903,2024-02-12 15:41:46.551,3.0
-0.9858,-0.4514,0.3501,-38.5437,-11.3602,7.2861,2024-02-12 15:41:46.567,3.0
-1.0117,-0.385,0.2437,-25.6805,-24.5361,-2.3575,2024-02-12 15:41:46.591,3.0
-0.9976,-0.1172,0.1968,-20.2713,-30.8914,-5.6076,2024-02-12 15:41:46.608,3.0
-0.8772,0.0542,0.2676,-19.0353,-23.0103,-10.9024,2024-02-12 15:41:46.624,3.0
-0.9243,0.0945,0.3303,-27.4353,-0.679,-22.1405,2024-02-12 15:41:46.640,3.0
-1.0369,0.0757,0.4312,-31.3263,-5.7907,-16.5939,2024-02-12 15:41:46.674,3.0
-1.0618,0.0237,0.3989,-40.1077,-36.0947,-4.8294,2024-02-12 15:41:46.682,3.0
-0.906,-0.2258,0.0808,-52.1469,-35.9039,-6.7368,2024-02-12 15:41:46.699,3.0
-1.0356,-0.228,0.1917,-60.1349,-10.9558,-31.9977,2024-02-12 15:41:46.707,3.0
-1.2671,-0.3721,0.0874,-49.9573,-9.697,-31.0287,2024-02-12 15:41:46.732,3.0
-1.2173,-0.3418,-0.0417,-32.1426,-15.7394,-25.7187,2024-02-12 15:41:46.749,3.0
-1.0437,-0.3625,-0.3306,-38.1088,-30.0369,-36.7737,2024-02-12 15:41:46.765,3.0
-0.9297,-0.3203,-0.2476,-54.0161,-45.433,-36.6364,2024-02-12 15:41:46.773,3.0
-0.717,-0.1643,-0.2236,-59.2041,-53.3142,-20.134,2024-02-12 15:41:46.807,3.0
-0.6355,0.0037,-0.1506,-79.6127,-14.5874,-8.5144,2024-02-12 15:41:46.815,3.0
-1.0095,0.1033,0.1506,-76.1719,42.4881,9.5978,2024-02-12 15:41:46.832,3.0
-1.3337,0.0649,0.0,-61.1191,70.7321,34.0805,2024-02-12 15:41:46.857,3.0
-1.3889,-0.063,-0.073,-60.1959,37.1094,32.753,2024-02-12 15:41:46.873,3.0
-1.3796,-0.1089,0.041,-61.9507,-42.1829,47.1115,2024-02-12 15:41:46.889,3.0
-1.1741,-0.2195,0.0952,-51.8646,-89.2868,62.3169,2024-02-12 15:41:46.905,3.0
-0.79,-0.2842,0.116,-43.7088,-101.1887,70.0684,2024-02-12 15:41:46.930,3.0
-0.5139,-0.2498,0.1829,-34.5306,-86.6241,76.0117,2024-02-12 15:41:46.946,3.0
-0.2739,-0.2041,0.1731,-20.5078,-48.9731,70.0378,2024-02-12 15:41:46.970,3.0
-0.2839,-0.0964,0.1086,-10.6583,-6.4774,59.4635,2024-02-12 15:41:46.986,3.0
-0.4023,-0.0037,0.082,-3.1891,16.983,46.5469,2024-02-12 15:41:46.994,3.0
-0.5195,0.0027,0.0608,-0.2899,14.8239,37.2086,2024-02-12 15:41:47.014,3.0
-0.5701,0.0317,0.0496,1.1444,6.1264,33.5464,2024-02-12 15:41:47.030,3.0
-0.4578,0.1006,0.1494,-2.1667,-2.0294,25.6424,2024-02-12 15:41:47.054,3.0
-0.3894,0.1313,0.2031,-1.4343,1.1597,11.7722,2024-02-12 15:41:47.066,3.0
-0.3936,0.0906,0.1765,-0.2747,14.5569,-1.0605,2024-02-12 15:41:47.091,3.0
-0.4795,0.0474,0.3486,0.2441,30.5405,-12.9623,2024-02-12 15:41:47.108,3.0
-0.6472,0.0242,0.533,7.7972,43.1519,-22.8653,2024-02-12 15:41:47.122,3.0
-0.8945,0.0037,0.4578,18.7912,36.5448,-24.147,2024-02-12 15:41:47.146,3.0
-1.0229,0.0137,0.3293,19.8364,14.8544,-13.3133,2024-02-12 15:41:47.163,3.0
-0.938,-0.0808,0.2065,14.389,-10.5515,-5.1498,2024-02-12 15:41:47.179,3.0
-0.8938,-0.022,0.1785,18.6768,-1.1215,-9.613,2024-02-12 15:41:47.203,3.0
-0.9497,0.0842,0.1553,19.9432,45.1355,-6.5918,2024-02-12 15:41:47.215,3.0
-1.0769,0.0991,0.3706,24.4751,67.4057,-3.1357,2024-02-12 15:41:47.239,3.0
-1.1833,0.1411,0.3396,35.5606,60.173,0.946,2024-02-12 15:41:47.254,3.0
-1.3484,0.1091,0.21,37.3459,77.2095,4.1275,2024-02-12 15:41:47.270,3.0
-1.5842,0.2297,0.2708,43.5181,61.7142,22.789,2024-02-12 15:41:47.294,3.0
-1.4475,0.3706,-0.2917,37.117,32.1198,46.4096,2024-02-12 15:41:47.302,3.0
-1.3328,0.5076,-0.5112,7.2327,4.1656,60.2264,2024-02-12 15:41:47.326,3.0
-1.1797,0.3618,-0.4827,-11.7035,-9.8877,72.9828,2024-02-12 15:41:47.351,3.0
-0.8696,-0.0474,-0.3855,-29.129,-38.2462,64.1098,2024-02-12 15:41:47.359,3.0
-0.553,-0.3064,0.0085,-28.801,-80.2841,31.7535,2024-02-12 15:41:47.375,3.0
-0.4321,-0.2026,0.4119,-5.8289,-79.1397,2.243,2024-02-12 15:41:47.391,3.0
-0.3987,-0.0586,0.3616,15.2817,-24.3301,-25.7721,2024-02-12 15:41:47.409,3.0
-0.6414,0.0271,-0.1028,15.2206,54.1229,-52.3148,2024-02-12 15:41:47.434,3.0
-1.0447,-0.0251,-0.2048,-0.3128,73.9899,-61.4243,2024-02-12 15:41:47.451,3.0
-1.3594,-0.1008,-0.0764,-10.9634,27.1072,-45.8527,2024-02-12 15:41:47.469,3.0
-1.207,-0.135,-0.0222,-16.8457,-59.7992,-39.1846,2024-02-12 15:41:47.485,3.0
-0.9119,-0.0488,-0.0281,-23.407,-118.2938,-35.2859,2024-02-12 15:41:47.501,3.0
-0.5559,0.0437,-0.0286,-30.6168,-135.2997,-35.9344,2024-02-12 15:41:47.518,3.0
-0.2949,0.0764,-0.1272,-45.1889,-120.9717,-43.9377,2024-02-12 15:41:47.542,3.0
-0.2036,0.0054,-0.0981,-60.5316,-85.7162,-50.8499,2024-02-12 15:41:47.559,3.0
-0.3274,-0.0334,0.0701,-67.3904,-35.0723,-49.5377,2024-02-12 15:41:47.575,3.0
-0.5742,-0.0461,0.1177,-68.8171,21.3699,-36.9797,2024-02-12 15:41:47.591,3.0
-0.6946,-0.0332,0.116,-73.7305,55.0919,-25.2304,2024-02-12 15:41:47.616,3.0
-0.7793,-0.0837,0.1968,-76.088,49.263,-15.1062,2024-02-12 15:41:47.632,3.0
-0.8032,-0.1492,0.2939,-68.8019,29.1748,-1.1597,2024-02-12 15:41:47.649,3.0
-0.7903,-0.2422,0.3669,-55.0156,12.4054,15.77,2024-02-12 15:41:47.674,3.0
-0.7244,-0.2437,0.4546,-41.2445,0.9537,27.3438,2024-02-12 15:41:47.683,3.0
-0.7,-0.2637,0.4875,-26.0773,-7.5989,31.0364,2024-02-12 15:41:47.699,3.0
-0.7039,-0.3325,0.3359,-12.4893,-16.7923,30.838,2024-02-12 15:41:47.715,3.0
-0.719,-0.3652,0.2769,-1.4267,-17.3492,24.4064,2024-02-12 15:41:47.740,3.0
-0.7898,-0.313,0.2842,9.5978,-8.2932,12.97,2024-02-12 15:41:47.757,3.0
-0.8767,-0.1306,0.1433,13.3896,7.4921,4.0131,2024-02-12 15:41:47.773,3.0
-0.9155,0.0098,0.1111,12.3672,17.5858,-8.9417,2024-02-12 15:41:47.789,3.0
-0.9678,-0.0083,0.2712,6.1417,18.5394,-23.0713,2024-02-12 15:41:47.813,3.0
-1.0295,-0.0334,0.4641,3.1204,15.5182,-24.7269,2024-02-12 15:41:47.829,3.0
-1.0002,0.032,0.4998,-0.267,6.9351,-20.6299,2024-02-12 15:41:47.853,3.0
-0.9417,-0.0847,0.4351,-12.7411,8.2016,-19.7983,2024-02-12 15:41:47.862,3.0
-1.0161,-0.1094,0.4006,-24.5209,29.3121,-40.0085,2024-02-12 15:41:47.887,3.0
-1.1633,-0.3977,0.2419,-27.1683,34.6985,-56.3812,2024-02-12 15:41:47.944,3.0
-1.2766,-0.5137,0.2686,-7.8506,30.0522,-58.9523,2024-02-12 15:41:47.960,3.0
-1.3608,-0.4744,0.0813,20.1111,6.1188,-51.3687,2024-02-12 15:41:48.001,3.0
-1.1292,-0.3979,-0.2117,24.5667,-30.4642,-34.9121,2024-02-12 15:41:48.001,3.0
-0.8958,-0.2026,-0.2793,6.7139,-65.2618,-16.571,2024-02-12 15:41:48.001,3.0
-0.6558,-0.0735,-0.2546,-8.8577,-69.0689,3.8452,2024-02-12 15:41:48.009,3.0
-0.4917,0.0601,-0.2581,-20.9808,-43.8843,17.8986,2024-02-12 15:41:48.009,3.0
-0.4529,0.1633,-0.0986,-31.25,13.1989,14.5645,2024-02-12 15:41:48.026,3.0
-0.7363,0.1787,0.1343,-32.0129,72.464,6.1417,2024-02-12 15:41:48.042,3.0
-1.1042,-0.0012,0.1289,-21.7056,97.0154,10.7269,2024-02-12 15:41:48.066,3.0
-1.2764,-0.1047,0.0278,-20.7214,66.6809,22.5677,2024-02-12 15:41:48.082,3.0
-1.2478,-0.2329,0.0767,-17.4179,14.1068,34.9426,2024-02-12 15:41:48.098,3.0
-1.0935,-0.3308,0.0652,-10.7498,-17.6544,47.493,2024-02-12 15:41:48.114,3.0
-0.8362,-0.3274,0.1265,1.2589,-27.6184,50.9109,2024-02-12 15:41:48.131,3.0
-0.6956,-0.25,0.1433,14.2365,-23.6435,51.4297,2024-02-12 15:41:48.151,3.0
-0.6255,-0.1643,0.1133,21.1945,-8.4457,47.8134,2024-02-12 15:41:48.176,3.0
-0.6443,-0.0925,0.1355,27.1072,0.9689,45.3339,2024-02-12 15:41:48.192,3.0
-0.658,-0.0283,0.1602,33.4091,0.2899,43.8995,2024-02-12 15:41:48.208,3.0
-0.6079,0.0278,0.136,35.2478,-7.2784,39.6805,2024-02-12 15:41:48.225,3.0
-0.5042,0.0547,0.1345,34.2255,-10.4446,30.9296,2024-02-12 15:41:48.246,3.0
-0.406,0.0842,0.1738,34.9655,-4.3411,17.6468,2024-02-12 15:41:48.260,3.0
-0.3708,0.063,0.2021,34.5306,7.2937,4.6463,2024-02-12 15:41:48.277,3.0
-0.3875,0.071,0.3027,34.7443,27.1759,-7.6904,2024-02-12 15:41:48.302,3.0
-0.4788,0.1145,0.3979,37.117,41.5039,-19.2719,2024-02-12 15:41:48.318,3.0
-0.6748,0.1062,0.3884,36.972,45.3644,-27.832,2024-02-12 15:41:48.334,3.0
-0.8838,0.0808,0.2927,37.0483,34.2407,-25.6729,2024-02-12 15:41:48.377,3.0
-0.8889,-0.0232,-0.0374,28.4119,5.6076,-13.4354,2024-02-12 15:41:48.385,3.0
-0.8459,0.0381,-0.1238,9.903,1.7929,-6.752,2024-02-12 15:41:48.385,3.0
-0.9895,0.0403,0.1152,5.043,46.73,-2.6627,2024-02-12 15:41:48.403,3.0
-1.1187,0.0908,0.2891,15.5258,79.7958,7.8506,2024-02-12 15:41:48.420,3.0
-1.103,0.0178,0.3699,23.5367,60.6003,10.3073,2024-02-12 15:41:48.444,3.0
-1.071,0.0181,0.4197,28.4729,42.1677,2.2125,2024-02-12 15:41:48.451,3.0
-1.1396,0.1145,0.2068,43.0984,55.9464,3.7384,2024-02-12 15:41:48.475,3.0
-1.4424,0.0886,0.1213,39.4745,88.829,3.006,2024-02-12 15:41:48.492,3.0
-1.489,0.3003,-0.2007,33.5922,60.1654,30.2811,2024-02-12 15:41:48.508,3.0
-1.2292,0.3911,-0.5259,1.77,1.358,36.9415,2024-02-12 15:41:48.542,3.0
-1.1404,0.3079,-0.3804,-19.5389,-33.0353,42.9306,2024-02-12 15:41:48.550,3.0
-0.8823,0.1311,-0.3684,-24.5514,-41.4963,49.9878,2024-02-12 15:41:48.568,3.0
-0.6077,-0.1177,-0.271,-24.7269,-56.5796,37.8342,2024-02-12 15:41:48.584,3.0
-0.5171,-0.2549,-0.1206,-20.7443,-48.0499,16.5787,2024-02-12 15:41:48.601,3.0
-0.5886,-0.282,0.0847,-4.8447,-2.9831,-5.0049,2024-02-12 15:41:48.617,3.0
-0.7424,-0.3079,0.1277,11.2,36.1557,-25.7797,2024-02-12 15:41:48.633,3.0
-1.0527,-0.2566,-0.1428,17.662,55.4428,-39.5813,2024-02-12 15:41:48.651,3.0
-1.2351,-0.2102,-0.1533,8.812,22.8729,-36.7737,2024-02-12 15:41:48.676,3.0
-1.1636,-0.189,0.0371,12.3749,-55.3436,-31.0974,2024-02-12 15:41:48.693,3.0
-0.9326,-0.073,-0.0454,13.5269,-106.8726,-28.8925,2024-02-12 15:41:48.709,3.0
-0.6055,0.0046,-0.0815,9.758,-100.3723,-32.7148,2024-02-12 15:41:48.734,3.0
-0.3813,0.0288,-0.0176,6.3858,-81.1691,-39.3066,2024-02-12 15:41:48.751,3.0
-0.3496,-0.0144,0.0366,1.1749,-46.9818,-45.2576,2024-02-12 15:41:48.767,3.0
-0.4539,-0.1033,0.1218,-3.3798,-10.231,-43.4799,2024-02-12 15:41:48.783,3.0
-0.5198,-0.1699,0.1177,-3.3951,1.0071,-37.5137,2024-02-12 15:41:48.799,3.0
-0.6755,-0.1631,0.1904,-2.8534,-4.8294,-28.3051,2024-02-12 15:41:48.815,3.0
-0.6667,-0.1255,0.1633,-0.5646,-13.6719,-18.7531,2024-02-12 15:41:48.832,3.0
-0.6135,-0.0857,0.1448,-0.2594,-15.152,-8.6899,2024-02-12 15:41:48.857,3.0
-0.5432,-0.0652,0.1418,-2.3575,-3.4027,0.1373,2024-02-12 15:41:48.873,3.0
-0.5374,-0.0518,0.1882,-6.6681,15.8157,7.7972,2024-02-12 15:41:48.890,3.0
-0.6177,-0.0264,0.2778,-7.9422,32.3486,17.5018,2024-02-12 15:41:48.907,3.0
-0.7546,-0.1008,0.2744,-3.2349,35.2783,29.1138,2024-02-12 15:41:48.931,3.0
-0.853,-0.156,0.2166,1.091,23.3536,31.601,2024-02-12 15:41:48.940,3.0
-0.9006,-0.0867,0.0554,-10.3912,5.6992,20.7138,2024-02-12 15:41:48.964,3.0
-0.9561,0.0466,0.0652,-17.3416,9.0027,7.4158,2024-02-12 15:41:48.981,3.0
-1.022,0.1042,0.0688,-18.7683,20.9579,-13.1683,2024-02-12 15:41:48.997,3.0
-1.0613,-0.031,0.2058,-25.9552,12.7869,-33.3328,2024-02-12 15:41:49.022,3.0
-1.1155,-0.0195,0.3955,-28.3585,6.073,-34.4467,2024-02-12 15:41:49.030,3.0
-1.1008,0.0737,0.4309,-29.1519,9.4681,-23.5977,2024-02-12 15:41:49.070,3.0
-0.918,-0.1243,0.1523,-44.1895,6.4087,-18.6005,2024-02-12 15:41:49.070,3.0
-0.9683,-0.3174,0.2961,-62.0346,32.0969,-44.3268,2024-02-12 15:41:49.087,3.0
-1.4976,-0.231,0.4407,-26.7487,35.2173,-43.8385,2024-02-12 15:41:49.103,3.0
-1.1956,-0.6033,-0.0396,-2.449,3.334,-12.7258,2024-02-12 15:41:49.127,3.0
-1.0347,-0.5671,-0.1846,8.2779,-19.9127,-12.4283,2024-02-12 15:41:49.143,3.0
-0.824,-0.5784,-0.1843,9.4757,-31.2881,-7.7744,2024-02-12 15:41:49.159,3.0
-0.606,-0.3701,-0.1846,9.7656,-22.4304,-8.4305,2024-02-12 15:41:49.175,3.0
-0.6614,-0.083,-0.1738,-1.1063,4.3259,0.0916,2024-02-12 15:41:49.192,3.0
-0.832,0.1169,-0.0256,-13.71,45.6772,10.7193,2024-02-12 15:41:49.217,3.0
-1.0828,0.2266,0.0232,-11.8103,65.0253,21.9193,2024-02-12 15:41:49.242,3.0
-1.2559,0.1462,-0.0979,-11.8866,53.6423,32.9285,2024-02-12 15:41:49.250,3.0
-1.2197,-0.0359,-0.1333,-17.3416,3.7994,42.1143,2024-02-12 15:41:49.266,3.0
-1.1013,-0.1475,0.0586,-16.1896,-44.7998,49.5682,2024-02-12 15:41:49.284,3.0
-0.9697,-0.2192,0.1484,-7.1869,-63.8351,56.4804,2024-02-12 15:41:49.308,3.0
-0.6279,-0.2397,0.0247,0.3357,-60.8749,61.1115,2024-02-12 15:41:49.324,3.0
-0.377,-0.2256,0.0718,8.0261,-49.1409,56.366,2024-02-12 15:41:49.341,3.0
-0.3472,-0.1489,0.1633,15.7547,-32.9514,46.0739,2024-02-12 15:41:49.366,3.0
-0.4119,-0.0564,0.2341,23.6053,-13.7405,37.7197,2024-02-12 15:41:49.374,3.0
-0.425,0.0376,0.2029,28.6026,3.3875,27.7939,2024-02-12 15:41:49.398,3.0
-0.5715,0.1433,0.2134,27.2217,12.207,20.5765,2024-02-12 15:41:49.415,3.0
-0.52,0.2336,0.1104,21.431,12.3215,17.7689,2024-02-12 15:41:49.431,3.0
-0.6406,0.2659,0.2649,17.5247,1.3275,17.0593,2024-02-12 15:41:49.448,3.0
-0.5952,0.2925,0.2322,15.0604,-8.6441,13.8016,2024-02-12 15:41:49.464,3.0
-0.5862,0.2429,0.1531,8.4152,-15.007,9.4833,2024-02-12 15:41:49.480,3.0
-0.5735,0.1577,0.1023,-0.8621,-18.5623,6.9122,2024-02-12 15:41:49.499,3.0
-0.6118,0.147,0.2039,3.0289,-5.7068,4.8523,2024-02-12 15:41:49.565,3.0
-0.6155,0.1277,0.2017,10.2921,18.7607,2.3117,2024-02-12 15:41:49.565,3.0
-0.5872,0.0173,0.0857,7.6828,35.4156,-5.1041,2024-02-12 15:41:49.565,3.0
-0.7827,0.043,0.1089,9.8343,71.6782,-8.3313,2024-02-12 15:41:49.573,3.0
-1.0398,0.1902,0.2588,25.5661,122.7646,-1.6708,2024-02-12 15:41:49.597,3.0
-1.0916,0.2126,0.1497,29.2969,117.2791,-2.9144,2024-02-12 15:41:49.613,3.0
-1.2996,0.3369,-0.1414,30.0369,111.8393,-4.1046,2024-02-12 15:41:49.629,3.0
-1.7656,0.1448,-0.1741,11.2381,153.801,4.4556,2024-02-12 15:41:49.645,3.0
-1.655,0.1958,-0.3831,5.8899,94.5969,39.6652,2024-02-12 15:41:49.662,3.0
-1.4939,0.3364,-0.791,-22.1939,-23.819,46.3943,2024-02-12 15:41:49.679,3.0
-1.1223,0.2766,-0.5305,-56.5109,-148.1705,22.7432,2024-02-12 15:41:49.703,3.0
-0.5698,0.0535,0.022,-59.4482,-196.5027,11.116,2024-02-12 15:41:49.720,3.0
-0.2788,0.0239,0.1313,-31.7001,-138.4964,-7.164,2024-02-12 15:41:49.736,3.0
-0.2791,-0.0298,0.1824,-15.8234,-43.0679,-29.6402,2024-02-12 15:41:49.752,3.0
-0.541,-0.1926,0.1689,-6.073,31.0974,-54.39,2024-02-12 15:41:49.776,3.0
-1.052,-0.2856,-0.1062,-0.9689,91.2781,-60.2264,2024-02-12 15:41:49.784,3.0
-1.2185,-0.3066,-0.0305,3.2883,77.5299,-50.827,2024-02-12 15:41:49.808,3.0
-1.2354,-0.1792,0.0552,23.819,-13.2141,-51.5289,2024-02-12 15:41:49.825,3.0
-1.1362,-0.0256,-0.0813,17.2501,-101.1276,-43.19,2024-02-12 15:41:49.849,3.0
-0.8018,-0.0403,-0.0085,6.4011,-124.7559,-42.7704,2024-02-12 15:41:49.866,3.0
-0.5691,-0.106,0.0552,6.5384,-103.3401,-45.5246,2024-02-12 15:41:49.882,3.0
-0.4321,-0.123,0.04,4.2267,-63.7207,-49.118,2024-02-12 15:41:49.899,3.0
-0.4192,-0.1538,0.0337,-2.2507,-31.8298,-50.0717,2024-02-12 15:41:49.917,3.0
-0.5059,-0.1597,0.0974,-7.4387,-16.9144,-46.5698,2024-02-12 15:41:49.933,3.0
-0.5984,-0.114,0.1057,-14.2059,-14.9155,-35.4691,2024-02-12 15:41:49.950,3.0
-0.6204,-0.0852,0.1172,-20.9579,-17.3187,-20.6299,2024-02-12 15:41:49.983,3.0
-0.5791,-0.0667,0.1992,-24.1394,-16.7694,-5.6763,2024-02-12 15:41:49.991,3.0
-0.5112,-0.0803,0.2957,-25.528,-13.1531,7.6675,2024-02-12 15:41:50.050,3.0
-0.4817,-0.0789,0.3716,-25.7797,-6.9809,15.8844,2024-02-12 15:41:50.059,3.0
-0.5059,-0.0984,0.314,-23.9105,2.9449,21.3623,2024-02-12 15:41:50.059,3.0
-0.5269,-0.1907,0.1333,-24.9786,14.6103,24.7574,2024-02-12 15:41:50.059,3.0
-0.5688,-0.271,-0.0706,-32.3105,36.7279,21.2555,2024-02-12 15:41:50.075,3.0
-0.7324,-0.05,-0.0103,-45.0592,71.5485,11.9781,2024-02-12 15:41:50.118,3.0
-0.8701,0.1465,0.1941,-54.8477,80.8868,-3.6774,2024-02-12 15:41:50.118,3.0
-1.021,0.116,0.3945,-61.4777,84.9533,-26.947,2024-02-12 15:41:50.127,3.0
-1.1335,-0.219,0.416,-66.6656,66.4062,-36.0947,2024-02-12 15:41:50.184,3.0
-1.1775,-0.3469,0.4375,-63.6597,29.6707,-28.9459,2024-02-12 15:41:50.201,3.0
-0.9941,-0.4663,0.1904,-54.1306,8.2397,-16.1743,2024-02-12 15:41:50.201,3.0
-0.8872,-0.6416,-0.071,-54.5502,57.6248,-37.323,2024-02-12 15:41:50.209,3.0
-1.2092,-0.3691,0.3406,-36.4685,95.1614,-75.1953,2024-02-12 15:41:50.209,3.0
-1.5725,-0.7009,0.0942,-7.2327,65.8722,-78.9642,2024-02-12 15:41:50.234,3.0
-1.6145,-0.7742,0.0063,34.4772,-0.1297,-53.8712,2024-02-12 15:41:50.242,3.0
-1.3188,-0.6204,-0.2441,41.5497,-65.7196,-24.9786,2024-02-12 15:41:50.258,3.0
-0.8247,-0.4551,-0.0654,37.0178,-97.1527,-9.2087,2024-02-12 15:41:50.274,3.0
-0.6548,-0.1919,-0.1526,32.8522,-72.9065,11.3525,2024-02-12 15:41:50.298,3.0
-0.627,0.1191,-0.2078,13.6337,-14.6332,17.7231,2024-02-12 15:41:50.307,3.0
-0.9265,0.0891,-0.0464,4.6921,30.2582,19.4702,2024-02-12 15:41:50.331,3.0
-1.1633,0.0796,-0.1038,1.7624,63.2782,12.1384,2024-02-12 15:41:50.348,3.0
-1.4678,0.0876,-0.0793,-7.9803,38.063,17.4026,2024-02-12 15:41:50.364,3.0
-1.4331,0.001,-0.0525,-12.0926,-22.8882,36.6821,2024-02-12 15:41:50.405,3.0
-1.1001,-0.0596,-0.0005,-8.4839,-82.0923,50.5295,2024-02-12 15:41:50.405,3.0
-0.8491,-0.0466,0.0688,-4.1122,-96.817,54.9774,2024-02-12 15:41:50.446,3.0
-0.6062,-0.0586,0.0625,3.3112,-77.1332,56.3965,2024-02-12 15:41:50.470,3.0
-0.4651,-0.0657,0.0593,5.722,-53.9551,54.4128,2024-02-12 15:41:50.470,3.0
-0.377,-0.0588,0.1265,9.285,-37.7731,50.3769,2024-02-12 15:41:50.479,3.0
-0.3296,-0.0688,0.1716,15.2206,-28.0075,41.3208,2024-02-12 15:41:50.495,3.0
-0.3381,-0.0344,0.1577,22.2702,-18.0359,30.3421,2024-02-12 15:41:50.511,3.0
-0.3022,0.0447,0.1675,22.789,-1.9379,18.1351,2024-02-12 15:41:50.535,3.0
-0.3057,0.1487,0.1943,22.789,19.6686,6.0806,2024-02-12 15:41:50.551,3.0
-0.3755,0.1863,0.1951,20.8282,39.8941,-4.837,2024-02-12 15:41:50.567,3.0
-0.4907,0.2024,0.2402,18.9133,45.3796,-12.764,2024-02-12 15:41:50.583,3.0
-0.6101,0.2041,0.2312,17.3721,38.8718,-17.1661,2024-02-12 15:41:50.600,3.0
-0.7271,0.1853,0.126,14.4577,35.141,-19.0353,2024-02-12 15:41:50.625,3.0
-0.8464,0.1785,0.052,8.8882,36.9568,-17.6392,2024-02-12 15:41:50.649,3.0
-0.95,0.0574,0.0737,3.2578,23.8876,-14.9307,2024-02-12 15:41:50.666,3.0
-1.0361,-0.1133,0.1765,5.5771,21.3623,-9.1324,2024-02-12 15:41:50.674,3.0
-1.1509,-0.1646,0.3687,17.5552,42.1677,-2.5864,2024-02-12 15:41:50.690,3.0
-1.2034,-0.114,0.342,34.05,52.3911,1.3199,2024-02-12 15:41:50.715,3.0
-1.1987,-0.0022,0.3455,43.7775,23.6664,3.4866,2024-02-12 15:41:50.731,3.0
-1.0642,0.2017,0.3284,49.7894,-19.6152,6.2561,2024-02-12 15:41:50.746,3.0
-0.8748,0.2905,0.3323,50.8804,-31.3644,2.1439,2024-02-12 15:41:50.770,3.0
-0.7751,0.365,-0.2302,46.2265,-2.4414,-0.1984,2024-02-12 15:41:50.779,3.0
-1.199,0.3,-0.2136,12.001,67.688,-3.273,2024-02-12 15:41:50.828,3.0
-1.3647,0.5747,-0.166,-1.3199,27.0462,15.9912,2024-02-12 15:41:50.828,3.0
-1.144,0.499,-0.416,-19.3024,-31.3034,36.6516,2024-02-12 15:41:50.836,3.0
-0.7444,0.1733,-0.312,-46.2265,-65.5289,37.4069,2024-02-12 15:41:50.852,3.0
-0.5083,-0.0117,-0.1389,-53.6575,-46.8445,21.9421,2024-02-12 15:41:50.876,3.0
-0.6182,-0.0671,-0.0603,-43.8995,17.1585,5.0583,2024-02-12 15:41:50.892,3.0
-0.9072,-0.0942,-0.0505,-35.965,70.4498,-13.1226,2024-02-12 15:41:50.908,3.0
-1.3074,-0.1389,-0.1316,-33.4854,74.6307,-22.2778,2024-02-12 15:41:50.925,3.0
-1.5176,-0.2314,-0.0771,-31.8832,42.9993,-21.3852,2024-02-12 15:41:50.950,3.0
-1.4834,-0.2756,0.0195,-25.589,-28.2974,-27.6108,2024-02-12 15:41:50.961,3.0
-1.2393,-0.2317,-0.01,-27.1454,-110.3363,-24.8413,2024-02-12 15:41:50.993,3.0
-0.8716,-0.1555,0.0581,-31.2424,-144.3634,-23.5825,2024-02-12 15:41:51.541,3.0
-0.5435,-0.0334,0.0437,-35.4691,-134.1019,-25.0473,2024-02-12 15:41:51.541,3.0
-0.3567,0.0559,0.021,-43.0069,-92.1631,-27.3514,2024-02-12 15:41:52.980,3.0
-0.2148,0.1301,-0.0183,-50.1633,-52.2614,-31.4865,2024-02-12 15:41:52.980,3.0
-0.2007,0.1538,0.0103,-57.0984,-22.6517,-33.8669,2024-02-12 15:41:52.980,3.0
-0.3154,0.0515,0.1118,-59.4101,-2.8152,-29.48,2024-02-12 15:41:52.980,3.0
-0.4639,-0.1191,0.2295,-55.5725,12.3749,-17.2501,2024-02-12 15:41:52.980,3.0
-0.5334,-0.2996,0.3042,-48.645,22.4762,-5.2032,2024-02-12 15:41:52.980,3.0
-0.5588,-0.4109,0.3384,-39.3906,25.8865,3.4943,2024-02-12 15:41:52.980,3.0
-0.3105,0.1477,0.1367,17.9672,-10.0555,10.7498,2024-02-12 15:41:52.988,3.0
-0.3518,0.1907,0.1853,11.795,0.824,0.9613,2024-02-12 15:41:52.996,3.0
-0.8625,0.0042,0.0247,0.2594,-21.3547,-9.8877,2024-02-12 15:41:53.013,3.0
-0.7637,0.0771,-0.1665,-11.8484,-16.0522,-3.9978,2024-02-12 15:41:53.030,3.0
-0.7881,-0.0476,-0.0293,-21.019,29.6097,-4.0283,2024-02-12 15:41:53.047,3.0
-0.9878,0.0068,0.2771,-13.1531,71.8613,-2.0676,2024-02-12 15:41:53.063,3.0
-1.1069,-0.0898,0.3691,1.5335,78.804,-0.1221,2024-02-12 15:41:53.087,3.0
-1.1816,0.0005,0.2312,17.8146,71.8613,4.6616,2024-02-12 15:41:53.103,3.0
-1.3682,-0.0142,0.0916,21.3928,91.9418,12.3596,2024-02-12 15:41:53.119,3.0
-1.5872,0.1292,0.0156,19.6762,80.452,27.3895,2024-02-12 15:41:53.136,3.0
-1.4758,0.3535,-0.4709,-0.9995,28.8467,54.0619,2024-02-12 15:41:53.161,3.0
-1.3098,0.5176,-0.6006,-27.0309,-6.1951,60.8749,2024-02-12 15:41:53.171,3.0
-1.1084,0.2805,-0.5251,-45.7153,-35.2249,60.257,2024-02-12 15:41:53.196,3.0
-0.8501,-0.0688,-0.2908,-50.2396,-77.6367,49.4614,2024-02-12 15:41:53.212,3.0
-0.4387,-0.3262,-0.0503,-40.9012,-115.8295,28.5721,2024-02-12 15:41:53.262,3.0
-0.2212,-0.3777,-0.0066,-28.5339,-95.9473,-6.2485,2024-02-12 15:41:53.262,3.0
-0.3704,-0.3208,-0.0017,-12.9547,-20.8817,-30.3116,2024-02-12 15:41:53.262,3.0
-0.7241,-0.2493,0.0193,-1.5945,51.0178,-38.9557,2024-02-12 15:41:53.279,3.0
-1.0488,-0.0332,-0.2964,0.6638,66.7496,-28.8544,2024-02-12 15:41:53.303,3.0
-1.1306,0.0278,-0.4246,-19.928,18.0283,-20.7748,2024-02-12 15:41:53.319,3.0
-1.0171,-0.0071,-0.1179,-34.6909,-56.2668,-34.5688,2024-02-12 15:41:53.335,3.0
-0.915,0.0105,-0.0522,-29.6478,-73.3566,-37.529,2024-02-12 15:41:53.351,3.0
-0.6414,0.0515,-0.1023,-30.1132,-60.6155,-39.3372,2024-02-12 15:41:53.383,3.0
-0.4875,0.0168,-0.1509,-36.6745,-44.548,-47.821,2024-02-12 15:41:53.391,3.0
-0.5327,-0.1013,-0.0754,-44.6701,-17.1661,-54.3442,2024-02-12 15:41:53.415,3.0
-0.635,-0.1614,0.0159,-47.2565,6.2714,-52.9251,2024-02-12 15:41:53.432,3.0
-0.7632,-0.1523,0.0996,-46.6156,10.994,-48.7595,2024-02-12 15:41:53.440,3.0
-0.7925,-0.114,0.1016,-44.6625,-5.8212,-39.6957,2024-02-12 15:41:53.473,3.0
-0.7603,-0.0859,0.0803,-44.5251,-23.7045,-28.8315,2024-02-12 15:41:53.482,3.0
-0.627,-0.0737,0.062,-47.8592,-29.9683,-16.0294,2024-02-12 15:41:53.490,3.0
-0.5232,-0.0725,0.063,-52.8564,-15.0757,-5.7526,2024-02-12 15:41:53.514,3.0
-0.5303,-0.0969,0.158,-57.457,8.4763,5.6458,2024-02-12 15:41:53.538,3.0
-0.5752,-0.0962,0.2061,-57.2433,23.5901,17.2577,2024-02-12 15:41:53.554,3.0
-0.6335,-0.1187,0.23,-57.0297,29.1672,24.3683,2024-02-12 15:41:53.571,3.0
-0.7502,-0.2141,0.2622,-59.3262,38.2996,23.8876,2024-02-12 15:41:53.590,3.0
-0.9443,-0.217,0.3762,-51.0178,33.1879,15.4877,2024-02-12 15:41:53.607,3.0
-0.9534,-0.228,0.0698,-36.4227,24.6582,-0.5951,2024-02-12 15:41:53.623,3.0
-0.9597,0.0383,0.0403,-39.36,11.5204,-12.8174,2024-02-12 15:41:53.639,3.0
-1.0469,-0.0154,0.2761,-44.4412,-0.3204,-31.0516,2024-02-12 15:41:53.655,3.0
-1.0469,-0.1877,0.3235,-51.8036,-18.425,-25.1541,2024-02-12 15:41:53.682,3.0
-0.8667,-0.2825,0.1335,-56.694,-20.9045,-14.8468,2024-02-12 15:41:53.690,3.0
-0.9646,-0.2288,0.1125,-65.0787,33.1116,-20.8969,2024-02-12 15:41:53.706,3.0
-1.1814,-0.3555,0.064,-53.9474,62.912,-38.8107,2024-02-12 15:41:53.731,3.0
-1.3286,-0.6838,-0.2087,-31.8222,46.3409,-38.002,2024-02-12 15:41:53.748,3.0
-1.1724,-0.5388,-0.3921,-9.2392,-2.449,-45.0897,2024-02-12 15:41:53.790,3.0
-1.105,-0.3867,-0.304,-16.2811,-32.8674,-56.2057,2024-02-12 15:41:53.790,3.0
-1.0444,-0.0759,-0.1956,-30.2887,-62.9349,-42.4118,2024-02-12 15:41:53.798,3.0
-0.8801,0.1685,-0.0642,-40.5426,-73.4177,-3.1357,2024-02-12 15:41:53.823,3.0
-0.6904,0.2571,-0.1328,-36.9797,-48.1262,19.1422,2024-02-12 15:41:53.840,3.0
-0.6687,0.2747,-0.2036,-42.3355,7.6599,25.4593,2024-02-12 15:41:53.856,3.0
-0.7842,0.1379,-0.1536,-48.2864,49.3088,21.1411,2024-02-12 15:41:53.872,3.0
-1.0461,-0.1135,0.0312,-45.7993,56.4117,23.9105,2024-02-12 15:41:53.896,3.0
-1.1326,-0.2046,0.156,-35.7056,10.3989,33.0429,2024-02-12 15:41:53.913,3.0
-0.9675,-0.2314,0.0364,-29.1443,-41.2827,41.2369,2024-02-12 15:41:53.929,3.0
-0.7527,-0.2087,0.0508,-19.0582,-50.0412,47.6761,2024-02-12 15:41:53.946,3.0
-0.5583,-0.1538,0.0056,-9.7504,-27.9541,47.4548,2024-02-12 15:41:53.962,3.0
-0.519,-0.0769,0.0725,0.2975,0.8392,43.4189,2024-02-12 15:41:53.986,3.0
-0.5525,-0.0503,0.0935,8.2855,10.8871,40.1611,2024-02-12 15:41:53.997,3.0
-0.6018,-0.0481,0.1179,16.4108,9.6893,35.9344,2024-02-12 15:41:54.021,3.0
-0.6167,-0.033,0.1274,25.8331,10.3531,30.9982,2024-02-12 15:41:54.047,3.0
-0.6047,-0.0164,0.1086,33.7601,15.0528,25.9781,2024-02-12 15:41:54.055,3.0
-0.6123,0.0078,0.0613,40.5807,21.7896,17.9749,2024-02-12 15:41:54.072,3.0
-0.6143,0.0142,0.0562,41.9312,21.7972,8.8882,2024-02-12 15:41:54.097,3.0
-0.6162,0.0161,0.0688,39.505,16.3879,-1.1597,2024-02-12 15:41:54.105,3.0
-0.6736,0.0164,0.2048,38.5284,10.6506,-9.3689,2024-02-12 15:41:54.121,3.0
-0.759,0.0217,0.2603,41.3437,8.606,-12.3367,2024-02-12 15:41:54.146,3.0
-0.8594,0.0527,0.2058,41.4429,7.9269,-11.3144,2024-02-12 15:41:54.162,3.0
-0.9502,0.0737,0.0967,36.9034,2.4567,-6.1874,2024-02-12 15:41:54.178,3.0
-0.9177,0.0718,-0.0103,31.6238,-8.4915,3.54,2024-02-12 15:41:54.203,3.0
-0.8743,0.0654,-0.0378,30.0217,-0.6714,9.9182,2024-02-12 15:41:54.211,3.0
-0.8674,-0.0525,0.0132,33.6456,24.826,11.795,2024-02-12 15:41:54.227,3.0
-0.9749,-0.1013,0.1465,45.4788,43.8843,15.7166,2024-02-12 15:41:54.251,3.0
-1.0718,-0.1768,0.3486,56.3812,46.8521,16.4719,2024-02-12 15:41:54.268,3.0
-1.1619,-0.2427,0.4561,75.5157,30.5176,10.5515,2024-02-12 15:41:54.284,3.0
-1.116,-0.0239,0.3276,91.9495,3.4409,12.3291,2024-02-12 15:41:54.308,3.0
-1.094,0.1958,0.0703,96.2448,1.5945,8.5983,2024-02-12 15:41:54.324,3.0
-1.4092,0.3284,-0.1157,84.2209,13.8245,17.8833,2024-02-12 15:41:54.348,3.0
-1.406,0.4956,-0.4294,63.8885,2.8381,43.9835,2024-02-12 15:41:54.356,3.0
-1.2844,0.4385,-0.5925,32.9971,-30.3726,55.4657,2024-02-12 15:41:54.373,3.0
-1.0376,0.2646,-0.7019,9.3307,-67.0929,69.8624,2024-02-12 15:41:54.389,3.0
-0.5879,-0.0579,-0.4905,-15.419,-103.6911,60.4019,2024-02-12 15:41:54.408,3.0
-0.1729,-0.2522,0.137,-9.3689,-121.1395,26.7868,2024-02-12 15:41:54.433,3.0
-0.2407,-0.2346,0.4189,33.5312,-65.9332,-10.1471,2024-02-12 15:41:54.457,3.0
-0.5076,-0.2117,0.1509,64.2776,38.4445,-37.2086,2024-02-12 15:41:54.482,3.0
-0.9033,-0.1794,-0.0542,58.96,77.7512,-50.0412,2024-02-12 15:41:54.482,3.0
-1.3496,-0.1436,-0.2844,44.4946,78.3615,-45.0134,2024-02-12 15:41:54.498,3.0
-1.2532,-0.2214,-0.1821,34.9579,-13.3362,-36.7661,2024-02-12 15:41:54.514,3.0
-1.1555,-0.0554,0.0068,39.7491,-114.2731,-38.6429,2024-02-12 15:41:54.539,3.0
-0.749,0.1194,-0.0608,36.9949,-128.6469,-30.2811,2024-02-12 15:41:54.547,3.0
-0.2856,0.1946,-0.0786,24.3607,-104.3243,-36.499,2024-02-12 15:41:54.576,3.0
-0.1516,0.1333,-0.0078,9.4376,-62.0804,-49.2401,2024-02-12 15:41:54.586,3.0
-0.3821,0.0049,0.2056,-0.3815,3.1967,-53.3447,2024-02-12 15:41:54.606,3.0
-0.5452,-0.1235,0.1982,-5.3711,44.1742,-51.6891,2024-02-12 15:41:54.623,3.0
-0.8286,-0.1499,0.2173,-6.3782,48.111,-46.4783,2024-02-12 15:41:54.655,3.0
-0.9424,-0.1309,0.178,-6.3095,11.8408,-31.1737,2024-02-12 15:41:54.663,3.0
-0.7979,-0.0896,0.1831,-5.1498,-28.3813,-12.3901,2024-02-12 15:41:54.680,3.0
-0.5916,-0.0591,0.2473,-7.8659,-32.9971,-0.5264,2024-02-12 15:41:54.696,3.0
-0.446,-0.0166,0.3462,-8.9874,-1.8158,10.1852,2024-02-12 15:41:54.713,3.0
-0.4863,0.002,0.3325,-4.8981,29.0833,16.3803,2024-02-12 15:41:54.729,3.0
-0.605,-0.1653,0.262,-0.1221,43.663,20.1263,2024-02-12 15:41:54.745,3.0
-0.8198,-0.2327,0.2146,-4.7379,49.3011,10.4599,2024-02-12 15:41:54.770,3.0
-0.9834,-0.1794,0.1521,-8.9493,48.3856,-1.1749,2024-02-12 15:41:54.778,3.0
-1.0742,-0.0078,0.1177,-0.679,35.5301,-18.1885,2024-02-12 15:41:54.803,3.0
-1.0964,-0.0698,0.2083,-10.0937,7.8201,-34.4086,2024-02-12 15:41:54.827,3.0
-1.0381,-0.1089,0.4385,-17.3569,-8.8577,-30.3116,2024-02-12 15:41:54.843,3.0
-0.8789,0.0002,0.4487,-15.3732,-0.4501,-19.2871,2024-02-12 15:41:54.860,3.0
-0.699,-0.332,0.1533,-29.7012,19.4397,-22.3083,2024-02-12 15:41:54.877,3.0
-0.9763,-0.4207,0.3154,-37.5671,54.0848,-52.5589,2024-02-12 15:41:54.900,3.0
-1.3906,-0.4167,0.2969,-22.7432,46.9055,-65.3763,2024-02-12 15:41:54.956,3.0
-1.4028,-0.6042,0.0962,-3.1815,25.0931,-56.9763,2024-02-12 15:41:54.956,3.0
-1.3745,-0.4468,-0.0271,28.6255,-20.0043,-51.8417,2024-02-12 15:41:54.956,3.0
-1.0933,-0.4871,-0.1921,26.1612,-60.0815,-41.893,2024-02-12 15:41:54.965,3.0
-0.8137,-0.1936,-0.1675,20.4697,-84.3124,-25.5737,2024-02-12 15:41:54.981,3.0
-0.5505,-0.0493,-0.2598,4.8218,-62.3779,-1.6632,2024-02-12 15:41:55.006,3.0
-0.4941,0.0227,-0.2124,-7.5073,-7.515,0.2213,2024-02-12 15:41:55.014,3.0
-0.8787,0.0806,-0.0432,-10.7956,60.6384,-2.243,2024-02-12 15:41:55.033,3.0
-1.3162,0.0383,-0.0769,-2.7008,88.4552,10.4141,2024-02-12 15:41:55.091,3.0
-1.4409,-0.0574,-0.1101,0.3281,51.033,31.6162,2024-02-12 15:41:55.091,3.0
-1.2734,-0.1003,-0.0535,-1.4801,-16.8457,47.3938,2024-02-12 15:41:55.091,3.0
-1.0195,-0.2441,-0.0396,3.7994,-52.803,53.8788,2024-02-12 15:41:55.107,3.0
-0.6736,-0.2988,-0.1333,8.9111,-49.7589,58.9294,2024-02-12 15:41:55.125,3.0
-0.5686,-0.2727,0.0747,17.8833,-24.9023,62.2101,2024-02-12 15:41:55.149,3.0
-0.502,-0.1711,0.0474,28.4195,-2.9526,60.5545,2024-02-12 15:41:55.165,3.0
-0.5823,-0.0674,0.094,34.3933,9.3536,56.7627,2024-02-12 15:41:55.181,3.0
-0.6257,-0.031,0.0842,39.8865,10.1852,52.5055,2024-02-12 15:41:55.205,3.0
-0.6206,-0.0342,0.053,43.1747,3.2578,47.2183,2024-02-12 15:41:55.213,3.0
-0.5151,0.0173,0.0815,43.2281,-7.6294,39.6423,2024-02-12 15:41:55.234,3.0
-0.4438,0.0208,0.1213,42.8848,-3.685,28.9993,2024-02-12 15:41:55.242,3.0
-0.3904,0.0193,0.1194,43.4418,12.8632,13.5422,2024-02-12 15:41:55.266,3.0
-0.4036,0.0469,0.1289,42.6254,26.8021,-0.5493,2024-02-12 15:41:55.282,3.0
-0.5007,0.092,0.1521,38.6963,36.8271,-9.491,2024-02-12 15:41:55.298,3.0
-0.5791,0.1182,0.2268,30.304,36.1404,-17.807,2024-02-12 15:41:55.314,3.0
-0.7925,0.1226,0.3645,26.0086,27.0004,-23.9258,2024-02-12 15:41:55.339,3.0
-0.9502,0.1411,0.2515,24.1776,16.4261,-21.3699,2024-02-12 15:41:55.355,3.0
-1.0339,0.1697,0.0088,12.9318,-9.4452,-7.9041,2024-02-12 15:41:55.380,3.0
-0.8999,0.1343,-0.1135,-2.655,-28.5492,2.8534,2024-02-12 15:41:55.388,3.0
-0.8228,0.0034,0.0359,-11.1465,1.6403,3.334,2024-02-12 15:41:55.404,3.0
-0.9434,-0.0361,0.2722,-3.6316,56.9077,-2.1973,2024-02-12 15:41:55.430,3.0
-1.0764,0.0432,0.4124,10.6888,69.2139,-4.9057,2024-02-12 15:41:55.447,3.0
-1.1765,0.1243,0.3682,17.9825,57.457,-2.1057,2024-02-12 15:41:55.463,3.0
-1.2698,0.1453,0.1064,23.5443,61.5768,9.1705,2024-02-12 15:41:55.488,3.0
-1.4504,0.0422,0.1045,17.746,69.1605,14.9765,2024-02-12 15:41:55.496,3.0
-1.5117,0.2385,-0.1592,15.8691,35.6903,40.741,2024-02-12 15:41:55.521,3.0
-1.197,0.4092,-0.521,-7.1869,-15.3275,53.6118,2024-02-12 15:41:55.539,3.0
-0.9993,0.2734,-0.4602,-29.4724,-53.009,57.7469,2024-02-12 15:41:55.547,3.0
-0.6453,0.1545,-0.4492,-33.165,-73.555,57.5104,2024-02-12 15:41:55.572,3.0
-0.4158,-0.1431,-0.2566,-37.4374,-74.5697,40.6418,2024-02-12 15:41:55.596,3.0
-0.3174,-0.2466,-0.0046,-27.3743,-49.8657,9.9564,2024-02-12 15:41:55.606,3.0
-0.5364,-0.2473,0.1692,-2.5406,24.0631,-16.9525,2024-02-12 15:41:55.631,3.0
-0.8582,-0.2371,0.0818,13.5651,74.2187,-35.5911,2024-02-12 15:41:55.647,3.0
-1.2817,-0.1658,-0.1978,12.8632,73.6771,-43.6783,2024-02-12 15:41:55.655,3.0
-1.3225,-0.1243,-0.2478,-1.8845,2.8229,-36.6211,2024-02-12 15:41:55.679,3.0
-1.1641,-0.0828,-0.0552,-6.218,-82.962,-36.8652,2024-02-12 15:41:55.743,3.0
-0.9304,0.0044,-0.0686,-7.0496,-113.5178,-33.7219,2024-02-12 15:41:55.743,3.0
-0.5708,0.0664,-0.1123,-14.6255,-92.7048,-35.5301,2024-02-12 15:41:55.752,3.0
-0.3875,0.0618,-0.0977,-24.0326,-61.5311,-43.3197,2024-02-12 15:41:55.752,3.0
-0.3691,0.0103,-0.0496,-36.8271,-25.0702,-53.7567,2024-02-12 15:41:55.768,0.0
-0.5188,-0.071,0.1057,-44.5023,3.9368,-56.282,2024-02-12 15:41:55.792,0.0
-0.6934,-0.0964,0.1143,-47.9736,7.8735,-46.3791,2024-02-12 15:41:55.800,0.0
-0.7817,-0.1475,0.1548,-47.4548,-7.2632,-31.9443,2024-02-12 15:41:55.824,0.0
-0.6448,-0.1497,0.1458,-46.1426,-20.6909,-19.6228,2024-02-12 15:41:56.256,0.0
-0.5391,-0.145,0.2017,-44.6548,-19.8822,-9.4147,2024-02-12 15:41:59.120,0.0
-0.4814,-0.1367,0.2305,-41.9388,-4.4556,-1.2741,2024-02-12 15:41:59.120,0.0
-0.5037,-0.137,0.2637,-38.3835,17.0441,8.1635,2024-02-12 15:41:59.120,0.0
-0.6313,-0.1267,0.3428,-30.2582,30.4718,19.7449,2024-02-12 15:41:59.128,0.0
-0.7817,-0.1074,0.3552,-16.5939,31.6238,29.7089,2024-02-12 15:41:59.128,0.0
-0.8274,-0.1624,0.2542,-12.6724,17.8604,30.9448,2024-02-12 15:41:59.128,0.0
-0.8811,-0.24,0.2437,-17.6849,0.7401,19.8212,2024-02-12 15:41:59.128,0.0
-0.9578,-0.1765,0.1423,-16.8991,-8.3618,7.1716,2024-02-12 15:41:59.136,0.0
-0.366,0.1028,0.1567,33.0887,11.3373,-1.4496,2024-02-12 15:41:59.430,0.0
-0.5146,-0.1091,-0.2705,155.5939,25.4974,54.5502,2024-02-12 15:41:59.430,0.0
-0.4707,-0.0979,-0.2649,149.7345,52.0096,40.184,2024-02-12 15:41:59.430,0.0
-0.6104,-0.0596,-0.248,145.8969,69.519,32.753,2024-02-12 15:41:59.430,0.0
-0.7661,-0.075,-0.2671,141.5939,71.2662,36.5372,2024-02-12 15:41:59.430,0.0
-0.8772,-0.1763,-0.1501,140.9149,60.5011,48.4848,2024-02-12 15:41:59.430,0.0
-0.8486,-0.3347,-0.0286,143.425,34.7519,57.8232,2024-02-12 15:41:59.454,0.0
-0.7649,-0.3955,0.0327,149.4751,19.2642,65.3,2024-02-12 15:41:59.462,0.0
-0.7571,-0.4087,0.0103,161.087,28.8315,70.7779,2024-02-12 15:41:59.479,0.0
-0.855,-0.3848,-0.2263,169.014,53.3066,73.2727,2024-02-12 15:41:59.495,0.0
-0.9565,-0.3318,-0.394,168.3273,43.2663,75.0275,2024-02-12 15:41:59.511,0.0
-0.886,-0.3318,-0.5149,167.3355,-3.5706,69.2291,2024-02-12 15:41:59.535,0.0
-0.7307,-0.2808,-0.5308,164.3829,-54.306,48.2483,2024-02-12 15:41:59.551,0.0
-0.582,0.0093,-0.3477,173.172,-64.8575,23.7427,2024-02-12 15:41:59.575,0.0
-0.6458,0.166,-0.574,179.3747,-53.6804,16.3574,2024-02-12 15:41:59.591,0.0
-0.5901,0.1472,-0.875,155.0064,-16.1972,29.0375,2024-02-12 15:41:59.607,0.0
-0.5676,0.0671,-0.6252,127.8992,14.946,27.42,2024-02-12 15:41:59.631,0.0
-0.8152,-0.0393,-0.2373,116.5848,51.9943,35.2707,2024-02-12 15:41:59.647,0.0
-1.0249,-0.1777,-0.0674,121.6965,61.0657,45.7535,2024-02-12 15:41:59.664,0.0
-1.1367,-0.2114,-0.1445,132.6447,31.8222,52.3071,2024-02-12 15:42:00.044,0.0
-1.0942,-0.0024,-0.3516,132.9346,-3.3722,57.991,2024-02-12 15:42:00.044,0.0
-0.9175,0.2437,-0.4482,120.5902,-23.674,60.0662,2024-02-12 15:42:00.044,0.0
-0.8115,0.303,-0.3928,107.5897,-23.8113,60.8368,2024-02-12 15:42:00.044,0.0
-0.7542,0.2812,-0.3037,92.2775,-15.3503,63.4613,2024-02-12 15:42:00.044,0.0
-0.6982,0.1575,-0.252,80.368,-17.7841,59.6771,2024-02-12 15:42:00.044,0.0
-0.6387,0.0291,-0.2056,71.106,-27.8473,52.5436,2024-02-12 15:42:00.044,0.0
-0.5776,-0.043,-0.2092,66.4749,-33.8669,43.5028,2024-02-12 15:42:00.044,0.0
-0.5669,-0.0762,-0.2837,63.8351,-29.5563,36.6745,2024-02-12 15:42:00.372,0.0
-0.8442,0.0269,-0.2922,-66.6199,0.7019,-13.6566,2024-02-12 15:42:00.397,0.0
-0.7747,0.0017,-0.207,-74.8901,0.4959,-15.3351,2024-02-12 15:42:00.411,0.0
-0.7551,-0.0183,-0.2024,-80.7877,9.5215,-15.2969,2024-02-12 15:42:00.427,0.0
-0.7297,-0.0269,-0.2415,-86.38,15.4419,-17.3264,2024-02-12 15:42:00.451,0.0
-0.6755,-0.0083,-0.2639,-94.6198,9.3994,-22.5143,2024-02-12 15:42:00.460,0.0
-0.647,0.0667,-0.2637,-103.0579,6.9962,-25.3906,2024-02-12 15:42:00.484,0.0
-0.6038,0.1584,-0.2856,-110.5881,14.2212,-26.0315,2024-02-12 15:42:00.492,0.0
-0.5686,0.1736,-0.2837,-117.0197,23.7885,-28.923,2024-02-12 15:42:00.517,0.0
-0.5688,0.1023,-0.2607,-121.0632,24.6735,-37.8189,2024-02-12 15:42:00.542,0.0
-0.6099,0.0093,-0.2222,-122.7798,22.934,-45.1965,2024-02-12 15:42:00.550,0.0
-0.6863,0.0024,-0.1904,-126.1215,19.371,-49.6368,2024-02-12 15:42:00.566,0.0
-0.7329,0.0225,-0.1902,-123.1461,13.9465,-51.6205,2024-02-12 15:42:00.582,0.0
-0.7744,0.03,-0.2429,-124.2371,2.1439,-55.9921,2024-02-12 15:42:00.607,0.0
-0.8472,0.0051,-0.2261,-125.0153,-13.5269,-55.0842,2024-02-12 15:42:00.624,0.0
-0.8774,-0.0874,-0.22,-123.642,-29.953,-52.7115,2024-02-12 15:42:00.640,0.0
-0.9192,-0.0391,-0.2598,-118.988,-37.4832,-47.0352,2024-02-12 15:42:00.657,0.0
-0.9534,-0.1021,-0.2388,-119.2169,-47.8363,-36.1252,2024-02-12 15:42:00.681,0.0
-0.9661,-0.0667,-0.2041,-108.8409,-51.7578,-22.8424,2024-02-12 15:42:00.706,0.0
-0.9463,-0.061,-0.1882,-103.7369,-57.9529,-12.6801,2024-02-12 15:42:00.716,0.0
-0.8777,-0.0576,-0.1519,-95.787,-73.4482,-4.3869,2024-02-12 15:42:00.736,0.0
-0.7798,-0.1335,-0.1479,-86.9446,-86.0672,-2.5787,2024-02-12 15:42:00.752,0.0
-0.6357,-0.1765,-0.1765,-77.7512,-88.8214,-5.0507,2024-02-12 15:42:00.784,0.0
-0.5308,-0.1499,-0.2065,-69.0842,-65.9561,-16.2201,2024-02-12 15:42:00.792,0.0
-0.6116,-0.0574,-0.2451,-60.0204,-11.7035,-25.2686,2024-02-12 15:42:00.802,0.0
-0.7639,-0.0115,-0.2598,-59.6924,23.7656,-24.8184,2024-02-12 15:42:00.816,0.0
-0.8555,-0.0178,-0.2778,-62.355,23.7961,-20.462,2024-02-12 15:42:00.841,0.0
-0.8743,-0.1125,-0.1362,-63.6139,4.837,-19.6152,2024-02-12 15:42:00.857,0.0
-0.8694,-0.1313,-0.0559,-59.1354,-2.449,-18.0359,2024-02-12 15:42:00.873,0.0
-0.8328,-0.0896,-0.0308,-55.1453,0.1068,-20.34,2024-02-12 15:42:00.889,0.0
-0.8625,-0.136,-0.0071,-54.2984,5.2338,-23.3917,2024-02-12 15:42:00.913,0.0
-0.8867,-0.1907,-0.0115,-50.4837,9.9792,-23.7579,2024-02-12 15:42:00.921,0.0
-0.9375,-0.2437,0.042,-43.3807,5.5237,-23.1552,2024-02-12 15:42:00.946,0.0
-0.9524,-0.2239,0.0366,-35.8353,-10.2386,-15.5487,2024-02-12 15:42:00.963,0.0
-0.8872,-0.1809,-0.0286,-31.9672,-22.6898,-9.2316,2024-02-12 15:42:00.979,0.0
-0.8464,-0.1382,-0.0234,-27.9922,-21.4462,-5.4169,2024-02-12 15:42:01.003,0.0
-0.8333,-0.1143,-0.0164,-23.0026,-19.0048,-0.8163,2024-02-12 15:42:01.011,0.0
-0.8022,-0.1428,-0.052,-14.946,-14.3814,1.0681,2024-02-12 15:42:01.035,0.0
-0.8093,-0.0925,-0.063,-7.7515,-12.1841,3.3035,2024-02-12 15:42:01.075,0.0
-0.7844,-0.0603,-0.0212,-2.5177,-13.3972,8.6136,2024-02-12 15:42:01.083,0.0
-0.7153,-0.0911,-0.0083,4.7073,-7.5226,10.4294,2024-02-12 15:42:01.083,0.0
-0.6638,-0.1194,-0.0579,14.4348,8.8348,7.988,2024-02-12 15:42:01.176,0.0
-0.6821,-0.146,-0.0925,23.0637,26.5808,0.7248,2024-02-12 15:42:01.184,0.0
-0.7551,-0.1567,-0.1025,28.7933,33.1573,-4.3182,2024-02-12 15:42:01.192,0.0
-0.8284,-0.1421,-0.0322,30.0522,31.0974,-5.2261,2024-02-12 15:42:01.200,0.0
-0.8855,-0.1306,-0.022,36.5295,24.147,-3.5172,2024-02-12 15:42:01.208,0.0
-0.8972,-0.1409,-0.0723,43.3807,16.5176,0.618,2024-02-12 15:42:01.216,0.0
-0.8879,-0.1382,-0.0701,49.1486,8.6212,3.1891,2024-02-12 15:42:01.257,0.0
-0.8726,-0.104,-0.0876,53.9932,4.6387,3.4027,2024-02-12 15:42:01.257,0.0
-0.8574,-0.0703,-0.1121,55.0232,0.4425,2.9678,2024-02-12 15:42:01.265,0.0
-0.843,-0.0269,-0.125,55.5038,-2.7237,1.8616,2024-02-12 15:42:01.265,0.0
-0.8445,-0.012,-0.0996,53.8101,-1.9455,2.7695,2024-02-12 15:42:01.274,0.0
-0.8345,-0.0068,-0.0691,54.6188,0.4044,3.8528,2024-02-12 15:42:01.298,0.0
-0.8445,-0.0288,-0.1089,53.2913,-1.8997,4.4708,2024-02-12 15:42:01.315,0.0
-0.8625,-0.0552,-0.0942,52.3987,-5.7831,5.4703,2024-02-12 15:42:01.348,0.0
-0.8501,-0.041,-0.0754,53.8788,-8.3694,7.3929,2024-02-12 15:42:01.348,0.0
-0.8137,-0.0408,-0.0708,54.5731,-8.9264,7.4921,2024-02-12 15:42:01.372,0.0
-0.7722,-0.0615,-0.03,56.3889,-5.5008,5.722,2024-02-12 15:42:01.388,0.0
-0.7827,-0.0593,-0.0269,60.5392,3.0365,5.1422,2024-02-12 15:42:01.400,0.0
-0.7974,-0.0691,-0.0571,62.5305,6.2256,4.9744,2024-02-12 15:42:01.425,0.0
-0.8342,-0.0757,-0.0496,65.3839,5.9204,5.4855,2024-02-12 15:42:01.449,0.0
-0.8533,-0.0671,-0.04,68.161,3.0975,6.0349,2024-02-12 15:42:01.465,0.0
-0.843,-0.0632,-0.0571,69.5953,-0.0916,5.9357,2024-02-12 15:42:01.473,0.0
-0.835,-0.0659,-0.0496,70.549,-1.1902,6.0349,2024-02-12 15:42:01.498,0.0
-0.8335,-0.0603,-0.0557,70.9076,-1.2665,5.6686,2024-02-12 15:42:01.507,0.0
-0.8359,-0.0544,-0.0691,69.8547,-1.8387,5.2338,2024-02-12 15:42:01.531,0.0
-0.8459,-0.0559,-0.0718,69.1757,-2.3346,4.6463,2024-02-12 15:42:01.547,0.0
-0.8625,-0.0232,-0.0605,69.7632,-3.2654,5.0659,2024-02-12 15:42:01.563,0.0
-0.8562,-0.0305,-0.1023,67.1234,-4.425,6.1111,2024-02-12 15:42:01.587,0.0
-0.8406,-0.0315,-0.1191,63.4842,-6.0654,6.5384,2024-02-12 15:42:01.603,0.0
-0.832,-0.0195,-0.1165,60.0281,-5.5008,5.4779,2024-02-12 15:42:01.627,0.0
-0.832,0.0134,-0.0901,56.7627,-5.8823,4.1733,2024-02-12 15:42:01.635,0.0
-0.8298,0.0254,-0.0894,53.7567,-9.2468,2.655,2024-02-12 15:42:01.652,0.0
-0.8025,0.0088,-0.0933,49.4614,-11.9629,-0.1221,2024-02-12 15:42:01.684,0.0
-0.7546,-0.0234,-0.0981,45.8755,-12.6419,-6.0883,2024-02-12 15:42:01.692,0.0
-0.7063,-0.0525,-0.0664,44.4641,-8.9951,-13.1454,2024-02-12 15:42:01.700,0.0
-0.7456,-0.1101,0.0193,46.402,1.9684,-18.7683,2024-02-12 15:42:01.725,0.0
-0.8611,-0.1265,0.0259,50.2701,11.2457,-19.6609,2024-02-12 15:42:01.744,0.0
-0.9438,-0.0942,0.0151,49.5071,4.4632,-18.6844,2024-02-12 15:42:01.768,0.0
