acceleration_x,acceleration_y,acceleration_z,gyroscope_x,gyroscope_y,gyroscope_z,timestamp,label
18976,-280,2412,-168,186,-183,2024-01-24 10:25:59,0.0
18924,-304,2220,-163,176,-183,2024-01-24 10:25:59,0.0
18876,-340,2388,-172,197,-198,2024-01-24 10:25:59,0.0
18976,-312,2404,-191,157,-183,2024-01-24 10:25:59,0.0
19044,-336,2244,-178,180,-176,2024-01-24 10:25:59,0.0
18888,-236,2332,-162,180,-200,2024-01-24 10:25:59,0.0
18948,-300,2356,-179,163,-178,2024-01-24 10:25:59,0.0
19032,-208,2296,-194,192,-202,2024-01-24 10:25:59,0.0
18904,-220,2320,-176,175,-177,2024-01-24 10:25:59,0.0
18848,-340,2232,-175,184,-176,2024-01-24 10:25:59,0.0
18924,-308,2328,-151,166,-191,2024-01-24 10:25:59,0.0
19020,-244,2216,-153,173,-172,2024-01-24 10:25:59,0.0
18860,-224,2496,-147,186,-182,2024-01-24 10:25:59,0.0
18944,-292,2332,-123,165,-194,2024-01-24 10:25:59,0.0
18872,-284,2308,-169,184,-166,2024-01-24 10:25:59,0.0
18896,-232,2300,-168,170,-194,2024-01-24 10:25:59,0.0
18940,-272,2376,-125,171,-163,2024-01-24 10:25:59,0.0
18864,-296,2364,-160,169,-190,2024-01-24 10:25:59,0.0
18880,-384,2332,-182,188,-173,2024-01-24 10:25:59,0.0
18900,-292,2136,-155,178,-176,2024-01-24 10:25:59,0.0
19012,-316,2372,-187,183,-172,2024-01-24 10:25:59,0.0
18956,-260,2384,-183,149,-171,2024-01-24 10:25:59,0.0
19012,-240,2404,-166,176,-181,2024-01-24 10:25:59,0.0
18916,-356,2332,-139,180,-163,2024-01-24 10:25:59,0.0
18888,-304,2376,-166,148,-168,2024-01-24 10:25:59,0.0
19012,-300,2356,-158,197,-167,2024-01-24 10:25:59,0.0
18948,-256,2372,-144,178,-176,2024-01-24 10:25:59,0.0
18920,-268,2380,-129,165,-191,2024-01-24 10:25:59,0.0
19004,-268,2388,-154,181,-167,2024-01-24 10:25:59,0.0
18928,-296,2244,-186,171,-188,2024-01-24 10:25:59,0.0
18956,-344,2448,-166,157,-181,2024-01-24 10:25:59,0.0
18944,-376,2504,-156,195,-170,2024-01-24 10:25:59,0.0
19048,-264,2480,-148,180,-200,2024-01-24 10:25:59,0.0
18964,-256,2520,-190,177,-182,2024-01-24 10:25:59,0.0
19056,-220,2364,-185,158,-171,2024-01-24 10:25:59,0.0
19000,-344,2396,-142,150,-186,2024-01-24 10:25:59,0.0
18928,-252,2416,-163,199,-174,2024-01-24 10:25:59,0.0
18908,-284,2228,-195,168,-184,2024-01-24 10:25:59,0.0
18892,-384,2432,-167,159,-165,2024-01-24 10:25:59,0.0
18904,-212,2348,-176,156,-204,2024-01-24 10:25:59,0.0
18916,-252,2292,-163,169,-186,2024-01-24 10:25:59,0.0
19028,-312,2300,-156,170,-175,2024-01-24 10:25:59,0.0
19008,-184,2408,-149,177,-175,2024-01-24 10:25:59,0.0
18988,-300,2344,-188,159,-171,2024-01-24 10:25:59,0.0
19012,-288,2432,-182,183,-173,2024-01-24 10:25:59,0.0
19056,-228,2380,-181,180,-198,2024-01-24 10:25:59,0.0
18864,-248,2376,-166,190,-181,2024-01-24 10:25:59,0.0
19028,-292,2360,-167,149,-189,2024-01-24 10:25:59,0.0
18992,-288,2376,-151,179,-201,2024-01-24 10:25:59,0.0
18984,-304,2284,-178,184,-177,2024-01-24 10:25:59,0.0
19012,-292,2308,-147,178,-170,2024-01-24 10:25:59,0.0
18996,-248,2408,-164,179,-187,2024-01-24 10:25:59,0.0
19016,-268,2408,-147,185,-158,2024-01-24 10:25:59,0.0
18956,-324,2364,-163,173,-185,2024-01-24 10:25:59,0.0
18944,-328,2260,-168,190,-159,2024-01-24 10:25:59,0.0
18964,-260,2300,-200,174,-185,2024-01-24 10:25:59,0.0
18940,-256,2412,-152,204,-155,2024-01-24 10:26:00,0.0
18916,-200,2388,-176,165,-172,2024-01-24 10:26:00,0.0
18952,-340,2364,-172,180,-192,2024-01-24 10:26:00,0.0
18996,-208,2396,-149,161,-172,2024-01-24 10:26:00,0.0
18924,-348,2368,-172,186,-194,2024-01-24 10:26:00,0.0
18900,-172,2356,-153,182,-205,2024-01-24 10:26:00,0.0
18920,-216,2452,-169,171,-177,2024-01-24 10:26:00,0.0
18976,-268,2388,-137,178,-171,2024-01-24 10:26:00,0.0
18916,-324,2420,-146,194,-175,2024-01-24 10:26:00,0.0
18988,-396,2244,-162,193,-182,2024-01-24 10:26:00,0.0
18976,-364,2304,-169,181,-166,2024-01-24 10:26:00,0.0
18992,-288,2272,-181,177,-180,2024-01-24 10:26:00,0.0
19008,-192,2288,-158,175,-186,2024-01-24 10:26:00,0.0
18976,-216,2448,-162,146,-183,2024-01-24 10:26:00,0.0
18948,-232,2272,-179,176,-169,2024-01-24 10:26:00,0.0
18908,-328,2312,-182,198,-186,2024-01-24 10:26:00,0.0
18896,-412,2484,-142,173,-191,2024-01-24 10:26:00,0.0
19028,-308,2468,-172,158,-177,2024-01-24 10:26:00,0.0
18956,-264,2236,-146,183,-190,2024-01-24 10:26:00,0.0
19036,-284,2296,-185,206,-184,2024-01-24 10:26:00,0.0
18932,-288,2280,-160,180,-188,2024-01-24 10:26:00,0.0
18964,-224,2380,-176,185,-159,2024-01-24 10:26:00,0.0
18876,-288,2360,-159,186,-190,2024-01-24 10:26:00,0.0
19060,-292,2596,-164,174,-196,2024-01-24 10:26:00,0.0
19000,-320,2252,-179,178,-183,2024-01-24 10:26:00,0.0
18960,-324,2444,-171,181,-165,2024-01-24 10:26:00,0.0
18856,-268,2332,-171,189,-181,2024-01-24 10:26:00,0.0
18924,-256,2316,-143,177,-176,2024-01-24 10:26:00,0.0
18972,-232,2348,-171,173,-176,2024-01-24 10:26:00,0.0
18940,-264,2352,-155,153,-194,2024-01-24 10:26:00,0.0
18972,-368,2360,-169,181,-181,2024-01-24 10:26:00,0.0
19036,-216,2484,-167,178,-175,2024-01-24 10:26:00,0.0
19096,-284,2396,-173,172,-186,2024-01-24 10:26:00,0.0
19080,-316,2396,-164,173,-193,2024-01-24 10:26:00,0.0
18952,-188,2396,-168,141,-163,2024-01-24 10:26:00,0.0
18908,-268,2264,-165,200,-184,2024-01-24 10:26:00,0.0
18920,-308,2376,-154,172,-168,2024-01-24 10:26:00,0.0
19032,-372,2520,-169,171,-188,2024-01-24 10:26:00,0.0
18992,-300,2396,-176,137,-194,2024-01-24 10:26:00,0.0
18948,-260,2288,-159,158,-175,2024-01-24 10:26:00,0.0
18888,-224,2316,-145,164,-167,2024-01-24 10:26:00,0.0
18880,-248,2544,-181,155,-178,2024-01-24 10:26:00,0.0
18964,-236,2444,-179,185,-197,2024-01-24 10:26:00,0.0
19016,-196,2336,-142,173,-186,2024-01-24 10:26:00,
18952,-240,2376,-163,187,-172,2024-01-24 10:26:00,0.0
18948,-268,2304,-142,173,-167,2024-01-24 10:26:00,0.0
19024,-412,2268,-188,195,-195,2024-01-24 10:26:00,0.0
18988,-388,2476,-146,182,-185,2024-01-24 10:26:00,0.0
18952,-324,2396,-166,151,-208,2024-01-24 10:26:00,0.0
18968,-344,2396,-169,203,-177,2024-01-24 10:26:00,0.0
18944,-252,2356,-172,169,-182,2024-01-24 10:26:00,0.0
18908,-304,2324,-176,161,-169,2024-01-24 10:26:00,0.0
19096,-212,2320,-202,182,-205,2024-01-24 10:26:00,0.0
18900,-176,2212,-192,202,-178,2024-01-24 10:26:00,0.0
18872,-268,2356,-153,170,-174,2024-01-24 10:26:00,0.0
18952,-324,2560,-166,183,-204,2024-01-24 10:26:00,0.0
19032,-300,2480,-172,156,-190,2024-01-24 10:26:00,0.0
18968,-176,2360,-173,174,-163,2024-01-24 10:26:00,0.0
19096,-304,2212,-186,177,-172,2024-01-24 10:26:00,0.0
18976,-196,2452,-180,173,-187,2024-01-24 10:26:00,0.0
18980,-260,2328,-165,144,-178,2024-01-24 10:26:01,0.0
18928,-244,2428,-176,170,-167,2024-01-24 10:26:01,0.0
18964,-168,2548,-173,184,-173,2024-01-24 10:26:01,0.0
19012,-196,2240,-148,191,-186,2024-01-24 10:26:01,0.0
18924,-288,2476,-183,184,-175,2024-01-24 10:26:01,0.0
18920,-252,2320,-161,181,-183,2024-01-24 10:26:01,0.0
18984,-376,2500,-169,175,-198,2024-01-24 10:26:01,0.0
19004,-356,2300,-141,146,-187,2024-01-24 10:26:01,0.0
19036,-236,2256,-152,162,-175,2024-01-24 10:26:01,0.0
19020,-292,2220,-161,168,-162,2024-01-24 10:26:01,0.0
19028,-248,2312,-184,193,-159,2024-01-24 10:26:01,0.0
18960,-152,2404,-190,189,-172,2024-01-24 10:26:01,0.0
18972,-276,2416,-156,160,-202,2024-01-24 10:26:01,0.0
18900,-252,2316,-160,162,-174,2024-01-24 10:26:01,0.0
18972,-332,2392,-174,169,-184,2024-01-24 10:26:01,0.0
18988,-324,2380,-180,176,-190,2024-01-24 10:26:01,0.0
18968,-400,2284,-150,191,-183,2024-01-24 10:26:01,0.0
19004,-328,2408,-169,171,-194,2024-01-24 10:26:01,0.0
18976,-260,2384,-157,171,-155,2024-01-24 10:26:01,0.0
18972,-268,2320,-180,184,-178,2024-01-24 10:26:01,0.0
18972,-284,2400,-166,171,-184,2024-01-24 10:26:01,0.0
18992,-296,2268,-182,165,-163,2024-01-24 10:26:01,0.0
19012,-224,2288,-183,181,-168,2024-01-24 10:26:01,0.0
18944,-328,2276,-164,192,-179,2024-01-24 10:26:01,0.0
19008,-224,2344,-157,195,-170,2024-01-24 10:26:01,0.0
18888,-356,2404,-172,177,-181,2024-01-24 10:26:01,0.0
19036,-312,2520,-144,216,-170,2024-01-24 10:26:01,0.0
18860,-272,2384,-170,175,-181,2024-01-24 10:26:01,0.0
18960,-320,2352,-163,207,-178,2024-01-24 10:26:01,0.0
19040,-224,2456,-147,196,-184,2024-01-24 10:26:01,0.0
18968,-276,2368,-166,183,-184,2024-01-24 10:26:01,0.0
19060,-276,2332,-174,192,-184,2024-01-24 10:26:01,0.0
18912,-264,2188,-152,179,-191,2024-01-24 10:26:01,0.0
18932,-296,2328,-161,169,-189,2024-01-24 10:26:01,0.0
19060,-332,2408,-177,205,-155,2024-01-24 10:26:01,0.0
19012,-388,2420,-179,175,-189,2024-01-24 10:26:01,0.0
18932,-332,2336,-166,175,-182,2024-01-24 10:26:01,0.0
18888,-272,2316,-147,179,-179,2024-01-24 10:26:01,0.0
19008,-256,2412,-152,174,-181,2024-01-24 10:26:01,0.0
19060,-216,2344,-162,152,-168,2024-01-24 10:26:01,0.0
18892,-304,2268,-188,162,-189,2024-01-24 10:26:01,0.0
18844,-276,2292,-152,177,-193,2024-01-24 10:26:01,0.0
19052,-312,2200,-177,182,-187,2024-01-24 10:26:01,0.0
19064,-172,2492,-156,169,-168,2024-01-24 10:26:01,0.0
18944,-236,2360,-170,159,-184,2024-01-24 10:26:01,0.0
18968,-384,2392,-177,180,-162,2024-01-24 10:26:01,0.0
18996,-340,2452,-159,159,-190,2024-01-24 10:26:01,0.0
18912,-236,2364,-183,169,-173,2024-01-24 10:26:01,0.0
18876,-308,2300,-149,173,-172,2024-01-24 10:26:01,0.0
18964,-276,2460,-153,178,-187,2024-01-24 10:26:01,0.0
18984,-328,2380,-172,156,-190,2024-01-24 10:26:01,0.0
18916,-268,2368,-163,157,-168,2024-01-24 10:26:01,0.0
18996,-340,2344,-178,176,-183,2024-01-24 10:26:01,0.0
18988,-272,2356,-157,188,-182,2024-01-24 10:26:01,0.0
18976,-308,2356,-169,190,-184,2024-01-24 10:26:01,0.0
19008,-344,2396,-149,157,-185,2024-01-24 10:26:01,0.0
19008,-312,2344,-184,170,-150,2024-01-24 10:26:01,0.0
18928,-284,2416,-156,191,-169,2024-01-24 10:26:01,0.0
18944,-448,2312,-174,172,-194,2024-01-24 10:26:01,0.0
18936,-268,2316,-140,205,-186,2024-01-24 10:26:01,0.0
18888,-292,2452,-150,153,-167,2024-01-24 10:26:02,0.0
18968,-352,2352,-162,137,-184,2024-01-24 10:26:02,0.0
18960,-280,2400,-163,167,-162,2024-01-24 10:26:02,0.0
18936,-344,2252,-163,210,-192,2024-01-24 10:26:02,0.0
18960,-288,2252,-170,194,-179,2024-01-24 10:26:02,0.0
18948,-288,2360,-183,192,-193,2024-01-24 10:26:02,0.0
18992,-324,2300,-161,170,-193,2024-01-24 10:26:02,0.0
18968,-304,2496,-161,171,-189,2024-01-24 10:26:02,0.0
18960,-232,2228,-169,177,-208,2024-01-24 10:26:02,0.0
18960,-236,2432,-165,180,-162,2024-01-24 10:26:02,0.0
18992,-260,2448,-167,181,-189,2024-01-24 10:26:02,0.0
18880,-256,2344,-180,166,-214,2024-01-24 10:26:02,0.0
18880,-328,2520,-150,155,-171,2024-01-24 10:26:02,0.0
19040,-276,2556,-159,173,-186,2024-01-24 10:26:02,0.0
18908,-168,2356,-175,182,-183,2024-01-24 10:26:02,0.0
19012,-324,2280,-193,174,-180,2024-01-24 10:26:02,0.0
18996,-300,2344,-174,180,-162,2024-01-24 10:26:02,0.0
18872,-308,2348,-164,176,-166,2024-01-24 10:26:02,0.0
19020,-288,2336,-189,182,-173,2024-01-24 10:26:02,0.0
18972,-216,2336,-152,164,-194,2024-01-24 10:26:02,0.0
18952,-232,2240,-166,176,-190,2024-01-24 10:26:02,0.0
18916,-316,2280,-165,187,-175,2024-01-24 10:26:02,0.0
19020,-308,2360,-175,156,-207,2024-01-24 10:26:02,0.0
18920,-152,2472,-165,182,-167,2024-01-24 10:26:02,
18944,-396,2360,-181,199,-187,2024-01-24 10:26:02,0.0
18976,-332,2452,-144,178,-167,2024-01-24 10:26:02,0.0
18872,-280,2272,-156,171,-184,2024-01-24 10:26:02,0.0
19032,-204,2424,-159,170,-184,2024-01-24 10:26:02,0.0
18888,-372,2360,-198,166,-163,2024-01-24 10:26:02,0.0
19040,-284,2284,-183,173,-185,2024-01-24 10:26:02,0.0
18952,-256,2328,-166,155,-191,2024-01-24 10:26:02,0.0
18992,-180,2252,-167,155,-186,2024-01-24 10:26:02,0.0
18960,-288,2376,-168,174,-191,2024-01-24 10:26:02,0.0
19020,-356,2420,-149,173,-172,2024-01-24 10:26:02,0.0
18960,-284,2292,-148,180,-184,2024-01-24 10:26:02,0.0
19024,-384,2536,-161,155,-195,2024-01-24 10:26:02,0.0
19020,-288,2496,-178,208,-181,2024-01-24 10:26:02,0.0
18980,-292,2468,-165,193,-166,2024-01-24 10:26:02,0.0
19032,-272,2476,-176,197,-185,2024-01-24 10:26:02,0.0
18932,-296,2364,-169,170,-170,2024-01-24 10:26:02,0.0
19044,-320,2404,-147,169,-193,2024-01-24 10:26:02,0.0
19016,-180,2420,-173,179,-167,2024-01-24 10:26:02,0.0
18916,-272,2536,-137,181,-182,2024-01-24 10:26:02,0.0
18888,-292,2340,-166,169,-162,2024-01-24 10:26:02,0.0
18992,-244,2416,-175,175,-173,2024-01-24 10:26:02,0.0
18932,-284,2408,-156,198,-183,2024-01-24 10:26:02,0.0
19128,-380,2264,-179,173,-179,2024-01-24 10:26:02,0.0
19000,-288,2268,-172,171,-201,2024-01-24 10:26:02,0.0
19024,-244,2436,-155,184,-175,2024-01-24 10:26:02,0.0
18956,-272,2400,-166,174,-151,2024-01-24 10:26:02,0.0
18892,-344,2408,-165,181,-184,2024-01-24 10:26:02,0.0
18992,-312,2388,-156,188,-171,2024-01-24 10:26:02,0.0
18984,-312,2424,-162,158,-168,2024-01-24 10:26:02,0.0
18980,-256,2320,-167,174,-181,2024-01-24 10:26:02,0.0
18956,-124,2280,-181,180,-190,2024-01-24 10:26:02,0.0
18928,-236,2320,-189,176,-173,2024-01-24 10:26:02,0.0
19004,-324,2296,-170,150,-189,2024-01-24 10:26:02,0.0
18940,-292,2400,-163,150,-186,2024-01-24 10:26:02,0.0
18964,-280,2280,-166,180,-181,2024-01-24 10:26:02,0.0
18916,-280,2416,-193,175,-163,2024-01-24 10:26:02,0.0
18984,-328,2500,-175,169,-173,2024-01-24 10:26:03,0.0
18880,-304,2312,-145,173,-171,2024-01-24 10:26:03,0.0
19056,-244,2412,-152,196,-173,2024-01-24 10:26:03,0.0
18968,-220,2300,-159,198,-163,2024-01-24 10:26:03,0.0
19056,-264,2432,-187,168,-199,2024-01-24 10:26:03,0.0
18972,-252,2296,-162,161,-151,2024-01-24 10:26:03,0.0
19008,-264,2364,-171,182,-193,2024-01-24 10:26:03,0.0
18956,-308,2556,-149,183,-148,2024-01-24 10:26:03,0.0
18900,-224,2340,-135,196,-169,2024-01-24 10:26:03,0.0
19004,-296,2396,-153,190,-177,2024-01-24 10:26:03,0.0
18952,-292,2292,-161,177,-191,2024-01-24 10:26:03,0.0
18916,-264,2224,-187,181,-164,2024-01-24 10:26:03,0.0
19060,-236,2176,-193,186,-169,2024-01-24 10:26:03,0.0
18980,-288,2472,-144,166,-171,2024-01-24 10:26:03,0.0
18952,-256,2308,-173,183,-157,2024-01-24 10:26:03,0.0
18916,-308,2336,-176,172,-176,2024-01-24 10:26:03,0.0
18776,-324,2348,-170,156,-191,2024-01-24 10:26:03,0.0
18888,-324,2332,-169,162,-189,2024-01-24 10:26:03,0.0
18788,-292,2404,-157,183,-185,2024-01-24 10:26:03,0.0
18932,-392,2392,-167,181,-168,2024-01-24 10:26:03,0.0
19028,-268,2404,-155,174,-168,2024-01-24 10:26:03,0.0
18916,-320,2268,-166,194,-184,2024-01-24 10:26:03,0.0
18900,-348,2436,-153,163,-198,2024-01-24 10:26:03,0.0
18932,-180,2352,-174,181,-172,2024-01-24 10:26:03,0.0
19016,-280,2356,-161,191,-181,2024-01-24 10:26:03,0.0
18956,-276,2444,-186,154,-180,2024-01-24 10:26:03,0.0
18976,-240,2348,-186,159,-189,2024-01-24 10:26:03,0.0
18896,-256,2392,-163,187,-178,2024-01-24 10:26:03,0.0
18880,-336,2312,-158,185,-184,2024-01-24 10:26:03,0.0
18944,-408,2412,-168,202,-184,2024-01-24 10:26:03,0.0
18940,-316,2388,-180,195,-180,2024-01-24 10:26:03,0.0
18864,-308,2328,-162,181,-192,2024-01-24 10:26:03,0.0
18888,-272,2228,-151,164,-178,2024-01-24 10:26:03,0.0
18988,-232,2304,-171,150,-204,2024-01-24 10:26:03,0.0
18956,-312,2332,-179,180,-152,2024-01-24 10:26:03,0.0
18976,-280,2380,-171,189,-185,2024-01-24 10:26:03,0.0
18968,-224,2408,-156,173,-151,2024-01-24 10:26:03,0.0
19024,-320,2364,-168,187,-201,2024-01-24 10:26:03,0.0
18996,-216,2416,-160,155,-189,2024-01-24 10:26:03,0.0
18980,-252,2392,-156,168,-183,2024-01-24 10:26:03,0.0
19032,-372,2248,-164,186,-180,2024-01-24 10:26:03,0.0
19004,-200,2484,-140,157,-174,2024-01-24 10:26:03,0.0
18948,-276,2232,-168,187,-179,2024-01-24 10:26:03,0.0
18960,-264,2328,-182,174,-172,2024-01-24 10:26:03,0.0
18932,-236,2304,-150,167,-183,2024-01-24 10:26:03,0.0
18912,-432,2212,-160,181,-182,2024-01-24 10:26:03,0.0
19004,-296,2324,-179,204,-195,2024-01-24 10:26:03,0.0
19024,-252,2408,-188,179,-173,2024-01-24 10:26:03,0.0
18968,-288,2444,-156,170,-178,2024-01-24 10:26:03,0.0
19008,-240,2368,-153,147,-190,2024-01-24 10:26:03,0.0
18952,-244,2220,-185,170,-178,2024-01-24 10:26:03,0.0
18980,-220,2408,-173,190,-167,2024-01-24 10:26:03,0.0
18972,-288,2356,-171,201,-187,2024-01-24 10:26:03,0.0
19008,-384,2296,-174,162,-194,2024-01-24 10:26:03,0.0
18936,-324,2136,-168,134,-182,2024-01-24 10:26:03,0.0
18992,-320,2272,-153,163,-181,2024-01-24 10:26:03,0.0
19032,-288,2408,-174,188,-174,2024-01-24 10:26:03,0.0
19004,-368,2376,-153,196,-182,2024-01-24 10:26:03,0.0
18964,-328,2316,-145,168,-199,2024-01-24 10:26:03,0.0
19016,-240,2384,-186,139,-185,2024-01-24 10:26:04,0.0
18940,-308,2380,-150,152,-179,2024-01-24 10:26:04,0.0
18956,-240,2236,-180,190,-172,2024-01-24 10:26:04,0.0
18920,-232,2352,-196,193,-159,2024-01-24 10:26:04,0.0
18932,-292,2440,-171,190,-150,2024-01-24 10:26:04,
19028,-328,2324,-155,187,-182,2024-01-24 10:26:04,0.0
19004,-296,2212,-191,137,-188,2024-01-24 10:26:04,0.0
19012,-396,2312,-149,165,-191,2024-01-24 10:26:04,0.0
19012,-320,2256,-173,189,-193,2024-01-24 10:26:04,0.0
19020,-348,2376,-152,165,-173,2024-01-24 10:26:04,0.0
18988,-148,2388,-183,186,-187,2024-01-24 10:26:04,0.0
19008,-324,2276,-160,198,-192,2024-01-24 10:26:04,0.0
19036,-308,2260,-181,178,-176,2024-01-24 10:26:04,0.0
18984,-228,2192,-171,182,-177,2024-01-24 10:26:04,0.0
19000,-328,2288,-162,195,-176,2024-01-24 10:26:04,0.0
18948,-272,2364,-173,185,-183,2024-01-24 10:26:04,0.0
18972,-260,2400,-157,173,-194,2024-01-24 10:26:04,0.0
19004,-260,2400,-170,158,-183,2024-01-24 10:26:04,0.0
19028,-348,2408,-179,178,-165,2024-01-24 10:26:04,0.0
19052,-304,2264,-181,179,-175,2024-01-24 10:26:04,0.0
18936,-312,2312,-166,171,-185,2024-01-24 10:26:04,0.0
19016,-272,2320,-163,170,-173,2024-01-24 10:26:04,0.0
18972,-284,2436,-154,181,-199,2024-01-24 10:26:04,0.0
18864,-276,2396,-133,161,-184,2024-01-24 10:26:04,0.0
18936,-288,2408,-164,178,-164,2024-01-24 10:26:04,0.0
18932,-312,2356,-146,156,-173,2024-01-24 10:26:04,0.0
18972,-320,2360,-188,186,-173,2024-01-24 10:26:04,0.0
18944,-244,2388,-168,183,-187,2024-01-24 10:26:04,0.0
18976,-252,2388,-156,210,-182,2024-01-24 10:26:04,0.0
19020,-272,2484,-143,142,-178,2024-01-24 10:26:04,0.0
19032,-332,2448,-186,177,-187,2024-01-24 10:26:04,0.0
18944,-252,2304,-156,185,-179,2024-01-24 10:26:04,0.0
19016,-240,2308,-173,177,-163,2024-01-24 10:26:04,0.0
18868,-260,2312,-120,178,-190,2024-01-24 10:26:04,0.0
18964,-256,2336,-171,167,-193,2024-01-24 10:26:04,0.0
18992,-308,2228,-176,180,-183,2024-01-24 10:26:04,0.0
19024,-268,2472,-169,192,-171,2024-01-24 10:26:04,0.0
19028,-196,2284,-186,194,-172,2024-01-24 10:26:04,0.0
19000,-252,2440,-169,177,-157,2024-01-24 10:26:04,0.0
18988,-232,2392,-181,161,-177,2024-01-24 10:26:04,0.0
19004,-328,2344,-161,173,-174,2024-01-24 10:26:04,0.0
19012,-228,2196,-172,175,-169,2024-01-24 10:26:04,0.0
18848,-256,2400,-167,176,-196,2024-01-24 10:26:04,0.0
19040,-360,2404,-160,163,-182,2024-01-24 10:26:04,0.0
18904,-296,2380,-148,175,-158,2024-01-24 10:26:04,0.0
18924,-296,2420,-171,170,-186,2024-01-24 10:26:04,0.0
19020,-324,2312,-158,207,-177,2024-01-24 10:26:04,0.0
18920,-316,2248,-158,187,-198,2024-01-24 10:26:04,0.0
18932,-300,2448,-188,180,-183,2024-01-24 10:26:04,0.0
19124,-288,2432,-191,174,-195,2024-01-24 10:26:04,0.0
19000,-276,2408,-156,174,-182,2024-01-24 10:26:04,0.0
18948,-300,2360,-182,154,-213,2024-01-24 10:26:04,0.0
18976,-312,2312,-178,190,-172,2024-01-24 10:26:04,0.0
19116,-368,2340,-158,189,-189,2024-01-24 10:26:04,0.0
18984,-352,2260,-159,175,-185,2024-01-24 10:26:04,0.0
18912,-316,2212,-170,176,-191,2024-01-24 10:26:04,0.0
19012,-328,2412,-152,193,-186,2024-01-24 10:26:04,0.0
19080,-240,2368,-166,173,-179,2024-01-24 10:26:04,0.0
18932,-284,2348,-151,180,-184,2024-01-24 10:26:04,0.0
18888,-212,2320,-180,177,-171,2024-01-24 10:26:04,0.0
18984,-292,2392,-154,170,-165,2024-01-24 10:26:05,0.0
18924,-376,2328,-178,189,-215,2024-01-24 10:26:05,0.0
18972,-272,2328,-169,178,-185,2024-01-24 10:26:05,0.0
18904,-232,2440,-173,162,-185,2024-01-24 10:26:05,0.0
18940,-344,2336,-182,182,-184,2024-01-24 10:26:05,0.0
19048,-312,2216,-165,188,-170,2024-01-24 10:26:05,0.0
18872,-244,2312,-182,185,-179,2024-01-24 10:26:05,0.0
18976,-216,2460,-170,169,-168,2024-01-24 10:26:05,0.0
18976,-264,2420,-162,123,-184,2024-01-24 10:26:05,0.0
18984,-312,2264,-194,168,-183,2024-01-24 10:26:05,0.0
19028,-284,2280,-154,186,-167,2024-01-24 10:26:05,0.0
18952,-336,2336,-162,185,-178,2024-01-24 10:26:05,0.0
19044,-324,2296,-155,173,-156,2024-01-24 10:26:05,0.0
18988,-324,2432,-176,178,-194,2024-01-24 10:26:05,0.0
19004,-248,2360,-149,187,-198,2024-01-24 10:26:05,0.0
18936,-332,2220,-168,190,-177,2024-01-24 10:26:05,0.0
18972,-232,2424,-150,180,-183,2024-01-24 10:26:05,0.0
18952,-288,2404,-136,182,-195,2024-01-24 10:26:05,0.0
18904,-296,2364,-165,175,-172,2024-01-24 10:26:05,0.0
18940,-304,2376,-181,170,-174,2024-01-24 10:26:05,0.0
18928,-360,2292,-160,162,-177,2024-01-24 10:26:05,0.0
18904,-348,2216,-162,174,-146,2024-01-24 10:26:05,0.0
18912,-308,2388,-158,198,-200,2024-01-24 10:26:05,0.0
18988,-284,2424,-158,183,-174,2024-01-24 10:26:05,0.0
19100,-256,2388,-167,196,-191,2024-01-24 10:26:05,0.0
19028,-320,2312,-155,159,-173,2024-01-24 10:26:05,0.0
19012,-264,2312,-150,185,-179,2024-01-24 10:26:05,0.0
19036,-352,2240,-165,183,-177,2024-01-24 10:26:05,0.0
18952,-360,2404,-161,192,-186,2024-01-24 10:26:05,0.0
19016,-256,2240,-186,158,-164,2024-01-24 10:26:05,0.0
18876,-252,2264,-140,178,-183,2024-01-24 10:26:05,0.0
18804,-200,2356,-164,167,-191,2024-01-24 10:26:05,0.0
18944,-160,2312,-179,193,-168,2024-01-24 10:26:05,0.0
18924,-172,2392,-159,188,-196,2024-01-24 10:26:05,0.0
18936,-264,2472,-194,190,-179,2024-01-24 10:26:05,0.0
18968,-332,2324,-171,163,-193,2024-01-24 10:26:05,0.0
18984,-272,2420,-171,191,-182,2024-01-24 10:26:05,0.0
18916,-344,2496,-163,162,-157,2024-01-24 10:26:05,0.0
19028,-368,2268,-175,206,-169,2024-01-24 10:26:05,0.0
18936,-284,2344,-144,191,-170,2024-01-24 10:26:05,0.0
18968,-292,2400,-174,170,-184,2024-01-24 10:26:05,0.0
19056,-160,2360,-158,161,-156,2024-01-24 10:26:05,0.0
19020,-208,2280,-149,160,-182,2024-01-24 10:26:05,0.0
19032,-128,2232,-161,185,-168,2024-01-24 10:26:05,0.0
18924,-240,2344,-168,196,-168,2024-01-24 10:26:05,
18872,-300,2328,-168,196,-182,2024-01-24 10:26:05,0.0
18944,-468,2380,-174,163,-167,2024-01-24 10:26:05,0.0
18976,-388,2272,-165,165,-191,2024-01-24 10:26:05,0.0
18984,-308,2380,-159,178,-183,2024-01-24 10:26:05,0.0
18944,-420,2308,-183,177,-174,2024-01-24 10:26:05,0.0
18996,-216,2376,-183,204,-184,2024-01-24 10:26:05,0.0
19024,-300,2324,-155,186,-163,2024-01-24 10:26:05,0.0
19052,-288,2420,-180,178,-160,2024-01-24 10:26:05,0.0
18960,-292,2212,-173,191,-169,2024-01-24 10:26:05,0.0
18960,-328,2420,-155,210,-178,2024-01-24 10:26:05,0.0
19012,-276,2320,-157,185,-169,2024-01-24 10:26:05,0.0
19032,-320,2496,-162,167,-195,2024-01-24 10:26:05,0.0
18960,-332,2560,-159,175,-201,2024-01-24 10:26:05,0.0
18976,-328,2388,-157,134,-168,2024-01-24 10:26:05,0.0
18988,-308,2312,-172,175,-194,2024-01-24 10:26:06,0.0
18984,-176,2324,-158,176,-178,2024-01-24 10:26:06,0.0
18900,-204,2312,-203,175,-170,2024-01-24 10:26:06,0.0
18952,-292,2232,-180,192,-202,2024-01-24 10:26:06,0.0
19084,-240,2348,-188,205,-195,2024-01-24 10:26:06,0.0
18968,-212,2228,-176,197,-160,2024-01-24 10:26:06,0.0
18916,-388,2252,-181,180,-177,2024-01-24 10:26:06,0.0
18956,-340,2388,-150,177,-191,2024-01-24 10:26:06,0.0
18888,-416,2512,-164,183,-187,2024-01-24 10:26:06,0.0
18952,-308,2336,-162,159,-178,2024-01-24 10:26:06,0.0
18964,-264,2252,-146,165,-161,2024-01-24 10:26:06,0.0
18880,-236,2456,-156,188,-189,2024-01-24 10:26:06,0.0
18984,-184,2404,-152,186,-163,2024-01-24 10:26:06,0.0
18964,-264,2432,-155,179,-178,2024-01-24 10:26:06,0.0
19016,-196,2336,-149,182,-196,2024-01-24 10:26:06,0.0
18976,-264,2376,-153,177,-171,2024-01-24 10:26:06,0.0
18988,-224,2280,-174,178,-186,2024-01-24 10:26:06,0.0
18980,-364,2340,-163,159,-185,2024-01-24 10:26:06,0.0
18864,-268,2456,-154,168,-192,2024-01-24 10:26:06,0.0
18932,-364,2360,-170,169,-173,2024-01-24 10:26:06,0.0
18904,-292,2356,-180,163,-177,2024-01-24 10:26:06,0.0
18984,-260,2268,-181,182,-180,2024-01-24 10:26:06,0.0
18944,-240,2444,-154,182,-192,2024-01-24 10:26:06,0.0
19040,-184,2312,-166,169,-147,2024-01-24 10:26:06,0.0
19008,-260,2368,-165,161,-186,2024-01-24 10:26:06,0.0
18932,-220,2488,-169,199,-202,2024-01-24 10:26:06,0.0
18948,-300,2356,-146,176,-178,2024-01-24 10:26:06,0.0
18952,-400,2324,-194,164,-184,2024-01-24 10:26:06,0.0
18976,-332,2252,-131,161,-177,2024-01-24 10:26:06,0.0
18924,-348,2312,-172,176,-161,2024-01-24 10:26:06,0.0
18944,-308,2336,-143,177,-169,2024-01-24 10:26:06,0.0
19016,-276,2352,-177,173,-184,2024-01-24 10:26:06,0.0
19008,-208,2388,-173,172,-180,2024-01-24 10:26:06,0.0
18960,-220,2392,-170,205,-181,2024-01-24 10:26:06,0.0
18964,-204,2376,-158,180,-178,2024-01-24 10:26:06,0.0
18944,-216,2352,-168,199,-184,2024-01-24 10:26:06,0.0
18952,-336,2340,-162,166,-166,2024-01-24 10:26:06,0.0
18864,-260,2296,-147,184,-194,2024-01-24 10:26:06,0.0
18952,-280,2320,-156,169,-167,2024-01-24 10:26:06,0.0
18960,-304,2300,-179,185,-193,2024-01-24 10:26:06,0.0
18996,-336,2388,-196,198,-191,2024-01-24 10:26:06,0.0
19040,-324,2452,-194,162,-171,2024-01-24 10:26:06,0.0
18988,-284,2412,-197,178,-186,2024-01-24 10:26:06,0.0
18948,-216,2388,-193,189,-200,2024-01-24 10:26:06,0.0
18892,-256,2400,-139,187,-178,2024-01-24 10:26:06,0.0
18972,-284,2376,-159,183,-183,2024-01-24 10:26:06,0.0
18912,-216,2440,-159,165,-172,2024-01-24 10:26:06,0.0
18920,-304,2380,-162,199,-167,2024-01-24 10:26:06,0.0
19032,-288,2332,-169,178,-170,2024-01-24 10:26:06,0.0
18976,-312,2364,-176,156,-175,2024-01-24 10:26:06,0.0
19044,-320,2320,-141,184,-170,2024-01-24 10:26:06,0.0
18832,-332,2364,-177,195,-187,2024-01-24 10:26:06,0.0
18980,-372,2336,-166,166,-198,2024-01-24 10:26:06,0.0
19008,-256,2324,-160,187,-174,2024-01-24 10:26:06,0.0
18908,-304,2436,-153,180,-162,2024-01-24 10:26:06,0.0
18872,-276,2324,-156,161,-150,2024-01-24 10:26:06,0.0
19012,-316,2336,-162,193,-185,2024-01-24 10:26:06,0.0
19004,-272,2320,-193,206,-185,2024-01-24 10:26:06,0.0
19056,-276,2204,-159,156,-183,2024-01-24 10:26:06,0.0
19096,-308,2260,-161,159,-160,2024-01-24 10:26:06,0.0
18968,-304,2384,-183,178,-188,2024-01-24 10:26:06,0.0
18892,-388,2304,-148,180,-174,2024-01-24 10:26:07,0.0
18944,-316,2544,-166,142,-177,2024-01-24 10:26:07,0.0
18944,-252,2360,-180,170,-177,2024-01-24 10:26:07,0.0
18940,-308,2332,-195,176,-184,2024-01-24 10:26:07,0.0
19004,-368,2340,-171,183,-170,2024-01-24 10:26:07,0.0
18992,-244,2348,-202,182,-190,2024-01-24 10:26:07,0.0
18984,-256,2400,-181,212,-205,2024-01-24 10:26:07,0.0
18960,-344,2296,-178,195,-166,2024-01-24 10:26:07,0.0
18944,-292,2356,-161,159,-185,2024-01-24 10:26:07,0.0
18900,-236,2388,-168,171,-176,2024-01-24 10:26:07,0.0
19020,-288,2420,-162,179,-212,2024-01-24 10:26:07,0.0
18972,-384,2328,-169,184,-175,2024-01-24 10:26:07,0.0
18924,-356,2464,-153,200,-189,2024-01-24 10:26:07,0.0
18988,-304,2440,-186,165,-184,2024-01-24 10:26:07,0.0
18880,-180,2440,-178,177,-187,2024-01-24 10:26:07,0.0
18896,-248,2280,-157,150,-196,2024-01-24 10:26:07,0.0
19028,-236,2332,-171,173,-172,2024-01-24 10:26:07,0.0
18984,-268,2324,-166,188,-158,2024-01-24 10:26:07,0.0
19028,-368,2484,-170,163,-186,2024-01-24 10:26:07,0.0
18980,-340,2236,-151,176,-191,2024-01-24 10:26:07,0.0
18976,-368,2400,-206,178,-159,2024-01-24 10:26:07,0.0
18952,-280,2524,-199,179,-183,2024-01-24 10:26:07,0.0
18956,-304,2376,-149,198,-188,2024-01-24 10:26:07,0.0
18960,-140,2432,-166,160,-167,2024-01-24 10:26:07,0.0
18920,-176,2432,-172,172,-190,2024-01-24 10:26:07,
18892,-120,2300,-187,196,-177,2024-01-24 10:26:07,0.0
18980,-188,2420,-193,173,-162,2024-01-24 10:26:07,0.0
19088,-144,2400,-168,179,-169,2024-01-24 10:26:07,0.0
18872,-348,2356,-162,169,-160,2024-01-24 10:26:07,0.0
18912,-300,2464,-154,182,-187,2024-01-24 10:26:07,0.0
19028,-440,2428,-143,198,-206,2024-01-24 10:26:07,0.0
18924,-268,2436,-196,138,-164,2024-01-24 10:26:07,0.0
18968,-296,2428,-161,166,-195,2024-01-24 10:26:07,0.0
18880,-256,2264,-164,177,-191,2024-01-24 10:26:07,0.0
19012,-128,2308,-167,156,-185,2024-01-24 10:26:07,0.0
18952,-264,2304,-183,157,-194,2024-01-24 10:26:07,0.0
19036,-176,2312,-164,170,-171,2024-01-24 10:26:07,0.0
18996,-292,2340,-167,188,-192,2024-01-24 10:26:07,0.0
19004,-280,2412,-145,215,-177,2024-01-24 10:26:07,0.0
19004,-384,2324,-172,179,-173,2024-01-24 10:26:07,0.0
19064,-244,2400,-165,162,-190,2024-01-24 10:26:07,0.0
18988,-400,2404,-159,181,-188,2024-01-24 10:26:07,0.0
18980,-296,2432,-177,205,-172,2024-01-24 10:26:07,0.0
19020,-280,2292,-158,194,-179,2024-01-24 10:26:07,0.0
18940,-220,2420,-157,177,-190,2024-01-24 10:26:07,0.0
19060,-212,2372,-162,151,-178,2024-01-24 10:26:07,0.0
18936,-256,2296,-181,131,-189,2024-01-24 10:26:07,0.0
18940,-168,2340,-186,199,-186,2024-01-24 10:26:07,0.0
18920,-272,2328,-171,208,-151,2024-01-24 10:26:07,0.0
18904,-296,2404,-151,198,-190,2024-01-24 10:26:07,0.0
19008,-392,2260,-179,186,-182,2024-01-24 10:26:07,0.0
18952,-292,2272,-180,177,-183,2024-01-24 10:26:07,0.0
18956,-412,2288,-176,145,-174,2024-01-24 10:26:07,0.0
18964,-260,2336,-174,176,-211,2024-01-24 10:26:07,0.0
19024,-192,2436,-192,176,-182,2024-01-24 10:26:07,0.0
18900,-252,2372,-148,156,-174,2024-01-24 10:26:07,0.0
19012,-188,2452,-166,164,-196,2024-01-24 10:26:07,0.0
19008,-312,2444,-142,188,-171,2024-01-24 10:26:07,0.0
18920,-300,2388,-165,179,-182,2024-01-24 10:26:07,0.0
18888,-284,2380,-157,185,-166,2024-01-24 10:26:08,0.0
18936,-328,2496,-147,206,-171,2024-01-24 10:26:08,0.0
18852,-372,2540,-165,164,-189,2024-01-24 10:26:08,0.0
18976,-252,2304,-171,141,-180,2024-01-24 10:26:08,0.0
19032,-360,2176,-137,163,-170,2024-01-24 10:26:08,0.0
18964,-232,2284,-175,191,-161,2024-01-24 10:26:08,0.0
18972,-192,2296,-171,179,-184,2024-01-24 10:26:08,0.0
18996,-288,2444,-177,180,-167,2024-01-24 10:26:08,0.0
18984,-328,2324,-173,191,-180,2024-01-24 10:26:08,0.0
18980,-336,2364,-140,163,-199,2024-01-24 10:26:08,0.0
19064,-372,2340,-167,168,-171,2024-01-24 10:26:08,0.0
18952,-336,2396,-149,202,-189,2024-01-24 10:26:08,0.0
18884,-280,2396,-117,179,-191,2024-01-24 10:26:08,0.0
19028,-276,2400,-157,128,-182,2024-01-24 10:26:08,0.0
18960,-280,2324,-140,159,-187,2024-01-24 10:26:08,0.0
18916,-324,2424,-158,153,-179,2024-01-24 10:26:08,0.0
18972,-308,2336,-183,157,-193,2024-01-24 10:26:08,0.0
18968,-364,2288,-169,201,-164,2024-01-24 10:26:08,0.0
18960,-328,2460,-197,193,-163,2024-01-24 10:26:08,0.0
18916,-280,2324,-178,157,-168,2024-01-24 10:26:08,0.0
18948,-320,2276,-171,159,-176,2024-01-24 10:26:08,0.0
19012,-288,2264,-173,157,-194,2024-01-24 10:26:08,0.0
19060,-296,2204,-173,138,-165,2024-01-24 10:26:08,0.0
18948,-340,2416,-168,175,-200,2024-01-24 10:26:08,0.0
19016,-312,2336,-177,194,-171,2024-01-24 10:26:08,0.0
18952,-372,2372,-166,175,-198,2024-01-24 10:26:08,0.0
18992,-340,2336,-165,185,-182,2024-01-24 10:26:08,0.0
18960,-388,2304,-196,152,-190,2024-01-24 10:26:08,0.0
18904,-248,2220,-193,140,-183,2024-01-24 10:26:08,0.0
18932,-288,2220,-168,206,-170,2024-01-24 10:26:08,0.0
18924,-320,2500,-135,229,-177,2024-01-24 10:26:08,0.0
18916,-292,2388,-165,129,-174,2024-01-24 10:26:08,0.0
18888,-300,2292,-149,142,-192,2024-01-24 10:26:08,0.0
18928,-276,2320,-181,180,-175,2024-01-24 10:26:08,0.0
18888,-284,2312,-169,190,-187,2024-01-24 10:26:08,0.0
18968,-244,2200,-166,179,-179,2024-01-24 10:26:08,0.0
19036,-264,2332,-140,154,-160,2024-01-24 10:26:08,0.0
18916,-296,2444,-168,171,-198,2024-01-24 10:26:08,0.0
18996,-240,2392,-172,163,-156,2024-01-24 10:26:08,0.0
18832,-408,2436,-191,230,-179,2024-01-24 10:26:08,0.0
19124,-308,2592,-150,207,-186,2024-01-24 10:26:08,0.0
18916,-288,2312,-169,155,-183,2024-01-24 10:26:08,0.0
18952,-208,2308,-166,143,-183,2024-01-24 10:26:08,0.0
19120,-228,2460,-160,139,-175,2024-01-24 10:26:08,0.0
18856,-260,2352,-169,171,-176,2024-01-24 10:26:08,0.0
19048,-252,2408,-167,207,-178,2024-01-24 10:26:08,0.0
18892,-256,2388,-161,186,-159,2024-01-24 10:26:08,0.0
19020,-232,2368,-159,157,-177,2024-01-24 10:26:08,0.0
19028,-332,2364,-155,172,-174,2024-01-24 10:26:08,0.0
19020,-256,2360,-125,185,-191,2024-01-24 10:26:08,0.0
19004,-340,2252,-159,212,-161,2024-01-24 10:26:08,0.0
19148,-344,2472,-163,197,-182,2024-01-24 10:26:08,0.0
18972,-368,2436,-162,172,-172,2024-01-24 10:26:08,0.0
19020,-260,2420,-147,126,-195,2024-01-24 10:26:08,0.0
18996,-296,2332,-165,173,-192,2024-01-24 10:26:08,0.0
18928,-232,2308,-198,203,-172,2024-01-24 10:26:08,0.0
19004,-276,2484,-147,183,-192,2024-01-24 10:26:08,0.0
18948,-164,2312,-171,199,-186,2024-01-24 10:26:08,0.0
18956,-236,2360,-151,171,-185,2024-01-24 10:26:08,0.0
18952,-284,2260,-157,153,-165,2024-01-24 10:26:08,0.0
18988,-276,2288,-171,197,-169,2024-01-24 10:26:09,0.0
18952,-340,2296,-178,192,-169,2024-01-24 10:26:09,0.0
18976,-244,2380,-180,155,-189,2024-01-24 10:26:09,0.0
18996,-240,2268,-158,183,-160,2024-01-24 10:26:09,0.0
18952,-240,2356,-184,172,-173,2024-01-24 10:26:09,0.0
19020,-312,2376,-175,161,-180,2024-01-24 10:26:09,
18924,-248,2236,-176,159,-175,2024-01-24 10:26:09,0.0
18976,-208,2332,-163,207,-166,2024-01-24 10:26:09,0.0
18884,-272,2468,-197,193,-178,2024-01-24 10:26:09,0.0
18912,-316,2336,-160,199,-175,2024-01-24 10:26:09,0.0
18988,-372,2376,-153,181,-193,2024-01-24 10:26:09,0.0
18892,-256,2276,-197,160,-169,2024-01-24 10:26:09,0.0
18980,-260,2376,-195,199,-178,2024-01-24 10:26:09,0.0
19028,-372,2344,-168,235,-177,2024-01-24 10:26:09,0.0
18960,-228,2292,-172,197,-187,2024-01-24 10:26:09,0.0
18852,-260,2516,-165,161,-192,2024-01-24 10:26:09,0.0
18908,-328,2364,-165,148,-169,2024-01-24 10:26:09,0.0
18908,-312,2376,-180,186,-171,2024-01-24 10:26:09,0.0
18972,-196,2376,-158,188,-188,2024-01-24 10:26:09,0.0
18908,-264,2400,-177,201,-178,2024-01-24 10:26:09,0.0
19108,-256,2424,-160,191,-157,2024-01-24 10:26:09,0.0
18948,-360,2452,-164,181,-195,2024-01-24 10:26:09,0.0
18960,-292,2296,-156,167,-168,2024-01-24 10:26:09,0.0
18964,-268,2388,-167,196,-180,2024-01-24 10:26:09,0.0
18900,-196,2416,-177,174,-174,2024-01-24 10:26:09,0.0
18884,-140,2408,-148,150,-172,2024-01-24 10:26:09,0.0
18988,-244,2320,-142,167,-178,2024-01-24 10:26:09,0.0
18912,-260,2356,-179,166,-176,2024-01-24 10:26:09,0.0
18996,-256,2452,-175,188,-206,2024-01-24 10:26:09,0.0
19012,-300,2408,-153,196,-210,2024-01-24 10:26:09,0.0
19032,-272,2436,-185,156,-210,2024-01-24 10:26:09,0.0
19000,-316,2236,-168,162,-183,2024-01-24 10:26:09,0.0
19004,-328,2340,-170,182,-193,2024-01-24 10:26:09,0.0
18972,-276,2320,-182,203,-177,2024-01-24 10:26:09,0.0
18920,-340,2332,-160,196,-179,2024-01-24 10:26:09,0.0
18956,-248,2272,-156,159,-183,2024-01-24 10:26:09,0.0
18924,-208,2368,-169,146,-180,2024-01-24 10:26:09,0.0
18884,-268,2184,-145,149,-179,2024-01-24 10:26:09,0.0
18900,-268,2320,-171,204,-187,2024-01-24 10:26:09,0.0
18980,-348,2392,-157,221,-169,2024-01-24 10:26:09,0.0
18964,-264,2408,-158,189,-179,2024-01-24 10:26:09,0.0
18924,-304,2336,-154,172,-171,2024-01-24 10:26:09,0.0
18876,-348,2300,-142,183,-184,2024-01-24 10:26:09,0.0
18972,-264,2316,-150,187,-182,2024-01-24 10:26:09,0.0
19056,-180,2460,-135,170,-169,2024-01-24 10:26:09,0.0
18928,-260,2356,-181,180,-184,2024-01-24 10:26:09,0.0
18900,-280,2448,-170,185,-199,2024-01-24 10:26:09,0.0
18988,-376,2372,-152,170,-184,2024-01-24 10:26:09,0.0
18980,-320,2264,-159,183,-205,2024-01-24 10:26:09,0.0
18988,-380,2368,-157,164,-188,2024-01-24 10:26:09,0.0
18968,-340,2456,-171,157,-202,2024-01-24 10:26:09,0.0
18920,-268,2372,-193,186,-190,2024-01-24 10:26:09,0.0
18940,-212,2468,-158,151,-166,2024-01-24 10:26:09,0.0
18908,-308,2344,-176,170,-194,2024-01-24 10:26:09,0.0
18972,-324,2376,-156,184,-162,2024-01-24 10:26:09,0.0
18872,-300,2412,-163,203,-175,2024-01-24 10:26:09,0.0
18980,-284,2376,-175,157,-182,2024-01-24 10:26:09,0.0
19056,-256,2440,-161,174,-184,2024-01-24 10:26:09,0.0
18976,-244,2352,-190,172,-202,2024-01-24 10:26:09,0.0
18872,-292,2364,-160,158,-170,2024-01-24 10:26:10,0.0
18896,-208,2284,-198,184,-186,2024-01-24 10:26:10,0.0
19064,-256,2432,-150,199,-176,2024-01-24 10:26:10,0.0
18884,-304,2340,-176,178,-184,2024-01-24 10:26:10,0.0
18984,-344,2356,-171,160,-194,2024-01-24 10:26:10,0.0
19020,-324,2348,-153,162,-180,2024-01-24 10:26:10,0.0
18928,-212,2380,-166,169,-167,2024-01-24 10:26:10,0.0
18944,-412,2328,-168,183,-192,2024-01-24 10:26:10,0.0
18964,-272,2440,-168,156,-167,2024-01-24 10:26:10,0.0
18884,-304,2348,-179,167,-204,2024-01-24 10:26:10,0.0
19012,-356,2468,-173,182,-178,2024-01-24 10:26:10,0.0
18936,-332,2360,-174,177,-185,2024-01-24 10:26:10,0.0
18944,-292,2508,-161,176,-158,2024-01-24 10:26:10,0.0
18976,-284,2356,-153,175,-168,2024-01-24 10:26:10,0.0
19020,-192,2340,-144,194,-174,2024-01-24 10:26:10,0.0
19048,-248,2384,-192,201,-167,2024-01-24 10:26:10,0.0
18892,-424,2468,-157,166,-182,2024-01-24 10:26:10,0.0
18972,-324,2344,-165,159,-173,2024-01-24 10:26:10,0.0
19028,-236,2348,-164,167,-196,2024-01-24 10:26:10,0.0
18960,-172,2292,-195,180,-176,2024-01-24 10:26:10,0.0
18852,-188,2316,-165,161,-183,2024-01-24 10:26:10,0.0
19000,-188,2368,-172,161,-167,2024-01-24 10:26:10,0.0
18920,-228,2460,-168,164,-187,2024-01-24 10:26:10,0.0
19036,-260,2328,-192,162,-194,2024-01-24 10:26:10,0.0
18940,-340,2180,-166,177,-173,2024-01-24 10:26:10,0.0
18936,-240,2276,-175,164,-199,2024-01-24 10:26:10,0.0
18888,-308,2400,-185,190,-172,2024-01-24 10:26:10,0.0
19000,-280,2352,-176,138,-178,2024-01-24 10:26:10,0.0
18916,-184,2200,-178,197,-183,2024-01-24 10:26:10,0.0
18972,-240,2356,-166,184,-175,2024-01-24 10:26:10,0.0
19072,-204,2316,-137,150,-189,2024-01-24 10:26:10,0.0
18948,-180,2376,-187,164,-194,2024-01-24 10:26:10,0.0
18900,-216,2184,-156,191,-187,2024-01-24 10:26:10,0.0
19072,-284,2224,-170,188,-181,2024-01-24 10:26:10,0.0
19004,-284,2340,-175,191,-194,2024-01-24 10:26:10,0.0
18964,-344,2432,-152,169,-194,2024-01-24 10:26:10,0.0
18940,-264,2336,-164,162,-195,2024-01-24 10:26:10,0.0
19008,-188,2312,-170,180,-177,2024-01-24 10:26:10,0.0
18980,-180,2280,-153,186,-175,2024-01-24 10:26:10,0.0
19044,-228,2396,-156,194,-181,2024-01-24 10:26:10,0.0
19028,-284,2412,-177,167,-180,2024-01-24 10:26:10,0.0
19000,-292,2244,-171,167,-164,2024-01-24 10:26:10,0.0
18968,-320,2356,-166,192,-188,2024-01-24 10:26:10,0.0
19036,-272,2356,-174,163,-178,2024-01-24 10:26:10,0.0
18996,-392,2420,-170,161,-178,2024-01-24 10:26:10,0.0
19020,-280,2384,-167,163,-173,2024-01-24 10:26:10,0.0
18848,-388,2200,-159,178,-199,2024-01-24 10:26:10,
18944,-256,2236,-155,168,-201,2024-01-24 10:26:10,0.0
19004,-256,2364,-177,186,-175,2024-01-24 10:26:10,0.0
18956,-328,2380,-167,158,-185,2024-01-24 10:26:10,0.0
18960,-256,2380,-154,163,-166,2024-01-24 10:26:10,0.0
18968,-280,2388,-184,157,-191,2024-01-24 10:26:10,0.0
18932,-292,2432,-142,175,-181,2024-01-24 10:26:10,0.0
18924,-296,2428,-157,191,-163,2024-01-24 10:26:10,0.0
19012,-268,2252,-158,174,-161,2024-01-24 10:26:10,0.0
18936,-268,2464,-142,212,-183,2024-01-24 10:26:10,0.0
19024,-212,2412,-161,185,-177,2024-01-24 10:26:10,0.0
18996,-208,2388,-144,167,-196,2024-01-24 10:26:10,0.0
18936,-292,2292,-174,173,-178,2024-01-24 10:26:10,0.0
18956,-256,2512,-158,164,-163,2024-01-24 10:26:10,0.0
18860,-264,2412,-168,203,-187,2024-01-24 10:26:11,0.0
18944,-244,2408,-160,187,-189,2024-01-24 10:26:11,0.0
18920,-340,2452,-198,171,-200,2024-01-24 10:26:11,0.0
19004,-200,2328,-191,150,-206,2024-01-24 10:26:11,0.0
19000,-224,2388,-161,170,-174,2024-01-24 10:26:11,0.0
19000,-284,2540,-182,184,-182,2024-01-24 10:26:11,0.0
19028,-276,2300,-182,220,-180,2024-01-24 10:26:11,0.0
18956,-300,2424,-157,178,-163,2024-01-24 10:26:11,0.0
18972,-236,2420,-169,155,-173,2024-01-24 10:26:11,0.0
18944,-276,2404,-199,156,-148,2024-01-24 10:26:11,0.0
18976,-296,2356,-158,169,-199,2024-01-24 10:26:11,0.0
18936,-292,2264,-158,185,-168,2024-01-24 10:26:11,0.0
18976,-308,2404,-184,186,-188,2024-01-24 10:26:11,0.0
18876,-320,2492,-178,171,-180,2024-01-24 10:26:11,0.0
19012,-284,2464,-157,172,-178,2024-01-24 10:26:11,0.0
18940,-400,2344,-194,174,-188,2024-01-24 10:26:11,0.0
18900,-268,2332,-162,166,-191,2024-01-24 10:26:11,0.0
18940,-368,2408,-193,204,-197,2024-01-24 10:26:11,0.0
19052,-240,2416,-162,193,-198,2024-01-24 10:26:11,0.0
19032,-284,2380,-173,129,-216,2024-01-24 10:26:11,0.0
18996,-208,2344,-208,162,-202,2024-01-24 10:26:11,0.0
18968,-252,2144,-170,202,-187,2024-01-24 10:26:11,0.0
19020,-244,2372,-178,206,-201,2024-01-24 10:26:11,0.0
19020,-292,2420,-187,191,-160,2024-01-24 10:26:11,0.0
18944,-308,2356,-182,155,-191,2024-01-24 10:26:11,0.0
18960,-328,2336,-169,156,-190,2024-01-24 10:26:11,0.0
18948,-264,2396,-180,163,-163,2024-01-24 10:26:11,0.0
19072,-296,2240,-182,209,-163,2024-01-24 10:26:11,0.0
18996,-344,2436,-184,201,-185,2024-01-24 10:26:11,0.0
18956,-236,2300,-202,185,-186,2024-01-24 10:26:11,0.0
18984,-264,2344,-154,151,-155,2024-01-24 10:26:11,0.0
18916,-212,2348,-170,192,-176,2024-01-24 10:26:11,0.0
19004,-312,2324,-164,199,-173,2024-01-24 10:26:11,0.0
18932,-264,2580,-138,169,-177,2024-01-24 10:26:11,0.0
18988,-220,2440,-176,170,-164,2024-01-24 10:26:11,0.0
19028,-260,2364,-125,178,-172,2024-01-24 10:26:11,0.0
18916,-284,2428,-186,186,-174,2024-01-24 10:26:11,0.0
18956,-316,2376,-145,174,-173,2024-01-24 10:26:11,0.0
18892,-340,2280,-151,210,-186,2024-01-24 10:26:11,0.0
19024,-276,2496,-188,189,-195,2024-01-24 10:26:11,0.0
19032,-212,2476,-166,149,-198,2024-01-24 10:26:11,0.0
19032,-228,2304,-156,180,-190,2024-01-24 10:26:11,0.0
19036,-220,2276,-151,184,-168,2024-01-24 10:26:11,0.0
18880,-268,2308,-183,173,-175,2024-01-24 10:26:11,0.0
18892,-328,2500,-186,177,-172,2024-01-24 10:26:11,0.0
18976,-180,2404,-153,171,-222,2024-01-24 10:26:11,0.0
18880,-232,2448,-168,191,-170,2024-01-24 10:26:11,0.0
19144,-216,2312,-171,200,-196,2024-01-24 10:26:11,0.0
18868,-260,2444,-161,166,-191,2024-01-24 10:26:11,0.0
18960,-284,2360,-192,182,-186,2024-01-24 10:26:11,0.0
19004,-284,2324,-174,179,-186,2024-01-24 10:26:11,0.0
19012,-156,2252,-187,164,-177,2024-01-24 10:26:11,0.0
18940,-220,2236,-170,217,-177,2024-01-24 10:26:11,0.0
18968,-300,2448,-174,180,-182,2024-01-24 10:26:11,0.0
18956,-412,2408,-177,175,-184,2024-01-24 10:26:11,0.0
18852,-412,2288,-169,159,-198,2024-01-24 10:26:11,0.0
18952,-288,2396,-184,165,-183,2024-01-24 10:26:11,0.0
18928,-264,2252,-168,187,-187,2024-01-24 10:26:11,0.0
19024,-324,2320,-174,174,-166,2024-01-24 10:26:11,0.0
18920,-228,2380,-155,149,-171,2024-01-24 10:26:11,0.0
18868,-312,2388,-199,152,-170,2024-01-24 10:26:12,0.0
18916,-116,2204,-167,194,-157,2024-01-24 10:26:12,0.0
18952,-232,2356,-175,184,-174,2024-01-24 10:26:12,0.0
18932,-272,2428,-139,207,-150,2024-01-24 10:26:12,0.0
18860,-468,2236,-164,179,-195,2024-01-24 10:26:12,0.0
19060,-300,2284,-181,177,-193,2024-01-24 10:26:12,0.0
18944,-284,2284,-152,199,-170,2024-01-24 10:26:12,0.0
18968,-372,2272,-174,181,-184,2024-01-24 10:26:12,0.0
19000,-348,2296,-163,177,-176,2024-01-24 10:26:12,0.0
18976,-260,2240,-173,156,-187,2024-01-24 10:26:12,0.0
19008,-252,2352,-186,161,-194,2024-01-24 10:26:12,0.0
19032,-240,2300,-175,182,-189,2024-01-24 10:26:12,0.0
18976,-316,2336,-146,181,-177,2024-01-24 10:26:12,0.0
18968,-252,2208,-185,187,-194,2024-01-24 10:26:12,0.0
18916,-280,2380,-157,174,-187,2024-01-24 10:26:12,0.0
18928,-284,2244,-154,154,-190,2024-01-24 10:26:12,0.0
18932,-352,2376,-175,157,-176,2024-01-24 10:26:12,0.0
19040,-348,2344,-167,184,-184,2024-01-24 10:26:12,0.0
18992,-280,2192,-182,162,-179,2024-01-24 10:26:12,0.0
18916,-280,2364,-160,184,-175,2024-01-24 10:26:12,0.0
18876,-276,2488,-175,156,-182,2024-01-24 10:26:12,0.0
18972,-284,2344,-192,184,-162,2024-01-24 10:26:12,0.0
18944,-264,2340,-140,154,-203,2024-01-24 10:26:12,0.0
18952,-176,2340,-165,175,-170,2024-01-24 10:26:12,0.0
19012,-208,2276,-164,170,-185,2024-01-24 10:26:12,0.0
18836,-348,2396,-159,204,-186,2024-01-24 10:26:12,0.0
19052,-472,2480,-159,177,-180,2024-01-24 10:26:12,
18984,-256,2404,-159,136,-186,2024-01-24 10:26:12,0.0
18968,-232,2212,-130,196,-174,2024-01-24 10:26:12,0.0
18916,-224,2352,-191,188,-194,2024-01-24 10:26:12,0.0
18984,-268,2332,-142,176,-165,2024-01-24 10:26:12,0.0
18884,-172,2392,-168,167,-199,2024-01-24 10:26:12,0.0
18940,-240,2240,-173,188,-172,2024-01-24 10:26:12,0.0
19008,-252,2392,-171,181,-160,2024-01-24 10:26:12,0.0
19016,-332,2408,-155,200,-188,2024-01-24 10:26:12,0.0
19044,-436,2368,-157,188,-164,2024-01-24 10:26:12,0.0
18960,-304,2480,-163,162,-205,2024-01-24 10:26:12,0.0
19032,-352,2276,-174,171,-185,2024-01-24 10:26:12,0.0
18960,-252,2380,-157,199,-160,2024-01-24 10:26:12,0.0
18868,-212,2320,-181,178,-191,2024-01-24 10:26:12,0.0
18888,-272,2384,-159,180,-184,2024-01-24 10:26:12,0.0
18960,-212,2336,-172,170,-158,2024-01-24 10:26:12,0.0
18948,-132,2376,-151,152,-194,2024-01-24 10:26:12,0.0
18996,-176,2376,-166,143,-179,2024-01-24 10:26:12,0.0
18956,-152,2320,-207,168,-172,2024-01-24 10:26:12,0.0
19040,-236,2332,-156,187,-161,2024-01-24 10:26:12,0.0
18928,-276,2328,-175,190,-177,2024-01-24 10:26:12,0.0
18948,-360,2496,-175,160,-197,2024-01-24 10:26:12,0.0
18932,-424,2600,-173,164,-172,2024-01-24 10:26:12,0.0
18968,-312,2368,-174,193,-186,2024-01-24 10:26:12,0.0
18972,-356,2292,-176,181,-173,2024-01-24 10:26:12,0.0
18980,-264,2372,-161,167,-186,2024-01-24 10:26:12,0.0
18948,-176,2324,-118,179,-199,2024-01-24 10:26:12,0.0
18968,-188,2416,-160,182,-204,2024-01-24 10:26:12,0.0
18844,-208,2256,-160,171,-180,2024-01-24 10:26:12,0.0
18968,-232,2456,-182,178,-187,2024-01-24 10:26:12,0.0
18872,-308,2428,-179,192,-159,2024-01-24 10:26:12,0.0
18948,-356,2388,-144,164,-181,2024-01-24 10:26:12,0.0
18992,-300,2432,-190,180,-205,2024-01-24 10:26:12,0.0
18964,-384,2396,-200,180,-182,2024-01-24 10:26:12,0.0
18920,-344,2456,-142,187,-189,2024-01-24 10:26:13,0.0
18948,-220,2348,-156,169,-170,2024-01-24 10:26:13,0.0
18924,-216,2456,-183,153,-200,2024-01-24 10:26:13,0.0
18976,-264,2400,-185,177,-148,2024-01-24 10:26:13,0.0
19012,-160,2392,-159,205,-184,2024-01-24 10:26:13,0.0
18992,-268,2308,-169,174,-189,2024-01-24 10:26:13,0.0
19004,-252,2244,-169,197,-170,2024-01-24 10:26:13,0.0
18840,-348,2368,-139,188,-187,2024-01-24 10:26:13,0.0
18932,-184,2448,-146,177,-179,2024-01-24 10:26:13,0.0
18940,-352,2396,-198,170,-186,2024-01-24 10:26:13,0.0
18944,-232,2276,-179,158,-152,2024-01-24 10:26:13,0.0
19064,-280,2320,-172,158,-176,2024-01-24 10:26:13,0.0
19044,-212,2456,-152,195,-181,2024-01-24 10:26:13,0.0
19040,-212,2368,-181,164,-184,2024-01-24 10:26:13,0.0
18980,-332,2344,-145,190,-175,2024-01-24 10:26:13,0.0
19036,-268,2344,-151,167,-191,2024-01-24 10:26:13,0.0
18976,-300,2304,-178,184,-178,2024-01-24 10:26:13,0.0
18968,-384,2284,-175,206,-186,2024-01-24 10:26:13,0.0
18936,-276,2296,-174,203,-167,2024-01-24 10:26:13,0.0
18948,-256,2332,-176,150,-183,2024-01-24 10:26:13,0.0
18960,-220,2324,-154,193,-167,2024-01-24 10:26:13,0.0
18924,-292,2320,-139,193,-188,2024-01-24 10:26:13,0.0
18968,-312,2308,-177,165,-183,2024-01-24 10:26:13,0.0
18916,-260,2328,-199,160,-180,2024-01-24 10:26:13,0.0
19008,-240,2460,-176,192,-188,2024-01-24 10:26:13,0.0
18968,-248,2356,-175,159,-167,2024-01-24 10:26:13,0.0
18960,-336,2260,-172,170,-185,2024-01-24 10:26:13,0.0
18908,-328,2336,-159,180,-171,2024-01-24 10:26:13,0.0
19020,-344,2508,-146,176,-155,2024-01-24 10:26:13,0.0
18964,-356,2260,-153,171,-168,2024-01-24 10:26:13,0.0
19040,-244,2416,-174,185,-191,2024-01-24 10:26:13,0.0
18952,-264,2348,-171,157,-172,2024-01-24 10:26:13,0.0
18932,-268,2376,-146,173,-199,2024-01-24 10:26:13,0.0
18988,-224,2268,-142,146,-166,2024-01-24 10:26:13,0.0
19000,-316,2248,-169,192,-193,2024-01-24 10:26:13,0.0
19012,-248,2328,-173,188,-191,2024-01-24 10:26:13,0.0
18952,-300,2296,-186,177,-181,2024-01-24 10:26:13,0.0
18936,-312,2476,-147,163,-173,2024-01-24 10:26:13,0.0
18892,-364,2376,-183,195,-191,2024-01-24 10:26:13,0.0
19128,-212,2332,-156,194,-151,2024-01-24 10:26:13,0.0
19036,-316,2428,-159,185,-178,2024-01-24 10:26:13,0.0
18992,-308,2344,-145,184,-185,2024-01-24 10:26:13,0.0
18948,-304,2436,-170,189,-179,2024-01-24 10:26:13,0.0
19016,-332,2284,-160,204,-170,2024-01-24 10:26:13,0.0
18968,-304,2304,-161,167,-180,2024-01-24 10:26:13,0.0
18972,-328,2468,-150,190,-176,2024-01-24 10:26:13,0.0
18976,-372,2440,-163,169,-186,2024-01-24 10:26:13,0.0
19028,-324,2448,-166,182,-170,2024-01-24 10:26:13,0.0
18984,-324,2316,-164,170,-205,2024-01-24 10:26:13,0.0
19012,-260,2408,-168,191,-162,2024-01-24 10:26:13,0.0
19012,-312,2428,-152,192,-179,2024-01-24 10:26:13,0.0
18928,-300,2420,-161,173,-182,2024-01-24 10:26:13,0.0
18864,-284,2288,-167,179,-181,2024-01-24 10:26:13,0.0
18960,-208,2432,-188,176,-201,2024-01-24 10:26:13,0.0
18872,-220,2344,-159,188,-175,2024-01-24 10:26:13,0.0
18984,-300,2332,-142,194,-167,2024-01-24 10:26:13,0.0
18932,-284,2228,-168,188,-181,2024-01-24 10:26:13,0.0
18904,-368,2452,-170,174,-177,2024-01-24 10:26:13,0.0
19008,-344,2216,-166,179,-167,2024-01-24 10:26:13,0.0
18988,-408,2508,-191,176,-166,2024-01-24 10:26:13,0.0
18988,-288,2100,-158,191,-166,2024-01-24 10:26:14,0.0
18952,-296,2284,-160,205,-185,2024-01-24 10:26:14,0.0
19000,-228,2332,-173,174,-184,2024-01-24 10:26:14,0.0
18948,-296,2332,-174,174,-181,2024-01-24 10:26:14,0.0
18960,-176,2300,-146,197,-157,2024-01-24 10:26:14,0.0
19004,-384,2408,-162,162,-178,2024-01-24 10:26:14,0.0
18932,-284,2356,-172,205,-192,2024-01-24 10:26:14,
19016,-352,2396,-140,182,-182,2024-01-24 10:26:14,0.0
18920,-352,2460,-146,187,-166,2024-01-24 10:26:14,0.0
18956,-364,2348,-171,174,-171,2024-01-24 10:26:14,0.0
18908,-360,2384,-167,175,-186,2024-01-24 10:26:14,0.0
19036,-340,2364,-180,148,-182,2024-01-24 10:26:14,0.0
18928,-272,2240,-146,200,-187,2024-01-24 10:26:14,0.0
19004,-312,2344,-174,183,-182,2024-01-24 10:26:14,0.0
18996,-316,2292,-199,184,-196,2024-01-24 10:26:14,0.0
18964,-272,2288,-154,174,-180,2024-01-24 10:26:14,0.0
18912,-244,2340,-191,192,-173,2024-01-24 10:26:14,0.0
18852,-280,2216,-158,170,-180,2024-01-24 10:26:14,0.0
19016,-280,2420,-147,165,-163,2024-01-24 10:26:14,0.0
18892,-300,2456,-170,183,-170,2024-01-24 10:26:14,0.0
18988,-236,2396,-164,158,-174,2024-01-24 10:26:14,0.0
18940,-288,2296,-167,190,-194,2024-01-24 10:26:14,0.0
18944,-300,2324,-156,183,-160,2024-01-24 10:26:14,0.0
18876,-204,2400,-155,210,-173,2024-01-24 10:26:14,0.0
18920,-348,2424,-160,192,-173,2024-01-24 10:26:14,0.0
18988,-200,2288,-157,162,-194,2024-01-24 10:26:14,0.0
19000,-312,2348,-178,187,-160,2024-01-24 10:26:14,0.0
19016,-292,2284,-190,161,-179,2024-01-24 10:26:14,0.0
18932,-268,2452,-187,180,-167,2024-01-24 10:26:14,0.0
18896,-372,2244,-168,175,-207,2024-01-24 10:26:14,0.0
18996,-236,2320,-170,180,-179,2024-01-24 10:26:14,0.0
18964,-296,2452,-164,156,-197,2024-01-24 10:26:14,0.0
18956,-240,2368,-181,145,-199,2024-01-24 10:26:14,0.0
18968,-228,2244,-140,186,-187,2024-01-24 10:26:14,0.0
19040,-416,2384,-170,209,-164,2024-01-24 10:26:14,0.0
18872,-344,2456,-154,205,-167,2024-01-24 10:26:14,0.0
18940,-324,2340,-178,184,-191,2024-01-24 10:26:14,0.0
19028,-264,2308,-157,168,-186,2024-01-24 10:26:14,0.0
18856,-280,2536,-191,158,-187,2024-01-24 10:26:14,0.0
19072,-236,2356,-176,173,-197,2024-01-24 10:26:14,0.0
19020,-256,2240,-187,167,-169,2024-01-24 10:26:14,0.0
18916,-236,2400,-184,213,-192,2024-01-24 10:26:14,0.0
19048,-292,2356,-155,161,-187,2024-01-24 10:26:14,0.0
18988,-192,2436,-163,164,-185,2024-01-24 10:26:14,0.0
18936,-296,2328,-159,178,-190,2024-01-24 10:26:14,0.0
18984,-268,2212,-163,192,-212,2024-01-24 10:26:14,0.0
19096,-196,2360,-189,166,-175,2024-01-24 10:26:14,0.0
18940,-308,2332,-170,151,-167,2024-01-24 10:26:14,0.0
18992,-272,2388,-172,167,-158,2024-01-24 10:26:14,0.0
18880,-376,2344,-177,151,-167,2024-01-24 10:26:14,0.0
18900,-188,2416,-179,190,-203,2024-01-24 10:26:14,0.0
19028,-244,2272,-188,185,-188,2024-01-24 10:26:14,0.0
18944,-296,2408,-162,201,-169,2024-01-24 10:26:14,0.0
18976,-252,2488,-165,158,-198,2024-01-24 10:26:14,0.0
18924,-396,2348,-182,181,-211,2024-01-24 10:26:14,0.0
18860,-400,2504,-165,159,-181,2024-01-24 10:26:14,0.0
18836,-288,2516,-168,185,-164,2024-01-24 10:26:14,0.0
18976,-284,2300,-150,191,-149,2024-01-24 10:26:14,0.0
18980,-320,2432,-163,181,-189,2024-01-24 10:26:14,0.0
18888,-292,2508,-143,154,-183,2024-01-24 10:26:15,0.0
19004,-344,2464,-160,158,-174,2024-01-24 10:26:15,0.0
18968,-156,2320,-153,189,-188,2024-01-24 10:26:15,0.0
19068,-332,2332,-161,174,-183,2024-01-24 10:26:15,0.0
18980,-280,2352,-165,72,-187,2024-01-24 10:26:15,0.0
18916,-348,2152,-160,189,-192,2024-01-24 10:26:15,0.0
19088,-320,2380,-162,218,-162,2024-01-24 10:26:15,0.0
18968,-236,2380,-176,179,-178,2024-01-24 10:26:15,0.0
18936,-320,2412,-166,171,-185,2024-01-24 10:26:15,0.0
18864,-348,2276,-163,167,-175,2024-01-24 10:26:15,0.0
19008,-364,2368,-140,145,-185,2024-01-24 10:26:15,0.0
19036,-256,2324,-173,182,-208,2024-01-24 10:26:15,0.0
18880,-260,2368,-183,205,-182,2024-01-24 10:26:15,0.0
19012,-168,2392,-161,194,-167,2024-01-24 10:26:15,0.0
18992,-296,2500,-163,173,-197,2024-01-24 10:26:15,0.0
18936,-304,2400,-194,167,-188,2024-01-24 10:26:15,0.0
19048,-368,2412,-193,192,-181,2024-01-24 10:26:15,0.0
18964,-180,2260,-147,197,-177,2024-01-24 10:26:15,0.0
19012,-216,2408,-156,194,-164,2024-01-24 10:26:15,0.0
19020,-300,2440,-181,162,-159,2024-01-24 10:26:15,0.0
18852,-272,2424,-160,176,-175,2024-01-24 10:26:15,0.0
19000,-276,2364,-160,162,-188,2024-01-24 10:26:15,0.0
18948,-196,2368,-151,156,-182,2024-01-24 10:26:15,0.0
18956,-264,2308,-167,211,-183,2024-01-24 10:26:15,0.0
18984,-264,2340,-165,214,-155,2024-01-24 10:26:15,0.0
18956,-212,2552,-144,185,-176,2024-01-24 10:26:15,0.0
18940,-244,2312,-203,209,-187,2024-01-24 10:26:15,0.0
18940,-364,2244,-165,166,-181,2024-01-24 10:26:15,0.0
18988,-232,2416,-154,170,-156,2024-01-24 10:26:15,0.0
18924,-328,2344,-158,206,-200,2024-01-24 10:26:15,0.0
18936,-264,2432,-161,173,-176,2024-01-24 10:26:15,0.0
18980,-240,2404,-169,178,-181,2024-01-24 10:26:15,0.0
18968,-320,2380,-162,153,-181,2024-01-24 10:26:15,0.0
19072,-344,2376,-139,162,-169,2024-01-24 10:26:15,0.0
18976,-320,2344,-187,186,-189,2024-01-24 10:26:15,0.0
19076,-152,2296,-188,181,-172,2024-01-24 10:26:15,0.0
19036,-392,2376,-171,179,-182,2024-01-24 10:26:15,0.0
19000,-300,2428,-180,174,-195,2024-01-24 10:26:15,0.0
19064,-256,2328,-169,168,-171,2024-01-24 10:26:15,0.0
18948,-292,2208,-186,178,-170,2024-01-24 10:26:15,0.0
18964,-288,2384,-162,179,-186,2024-01-24 10:26:15,0.0
18912,-364,2404,-200,194,-155,2024-01-24 10:26:15,0.0
18908,-248,2524,-191,185,-176,2024-01-24 10:26:15,0.0
19012,-272,2340,-173,160,-195,2024-01-24 10:26:15,0.0
19036,-276,2432,-145,207,-169,2024-01-24 10:26:15,0.0
18980,-236,2348,-164,195,-172,2024-01-24 10:26:15,0.0
18992,-424,2256,-175,185,-169,2024-01-24 10:26:15,0.0
18952,-352,2424,-172,181,-198,2024-01-24 10:26:15,
18980,-344,2268,-181,180,-188,2024-01-24 10:26:15,0.0
18912,-244,2388,-158,189,-152,2024-01-24 10:26:15,0.0
18872,-340,2412,-168,165,-187,2024-01-24 10:26:15,0.0
18836,-244,2332,-170,159,-172,2024-01-24 10:26:15,0.0
18984,-288,2340,-168,161,-180,2024-01-24 10:26:15,0.0
19000,-260,2464,-169,167,-189,2024-01-24 10:26:15,0.0
18928,-228,2292,-168,234,-179,2024-01-24 10:26:15,0.0
18988,-236,2420,-158,183,-172,2024-01-24 10:26:15,0.0
18964,-320,2440,-174,164,-167,2024-01-24 10:26:15,0.0
18960,-192,2320,-167,148,-177,2024-01-24 10:26:15,0.0
18996,-292,2248,-165,155,-176,2024-01-24 10:26:15,0.0
18960,-228,2300,-161,214,-173,2024-01-24 10:26:15,0.0
18948,-292,2396,-158,212,-168,2024-01-24 10:26:16,0.0
18892,-340,2472,-146,152,-190,2024-01-24 10:26:16,0.0
18996,-340,2372,-170,154,-189,2024-01-24 10:26:16,0.0
18880,-356,2336,-174,159,-169,2024-01-24 10:26:16,0.0
18952,-212,2252,-172,180,-180,2024-01-24 10:26:16,0.0
19016,-284,2488,-162,200,-158,2024-01-24 10:26:16,0.0
18956,-272,2388,-182,158,-151,2024-01-24 10:26:16,0.0
18944,-376,2372,-158,135,-188,2024-01-24 10:26:16,0.0
18884,-360,2212,-175,159,-177,2024-01-24 10:26:16,0.0
18984,-240,2360,-168,202,-158,2024-01-24 10:26:16,0.0
19076,-220,2360,-169,195,-188,2024-01-24 10:26:16,0.0
19116,-280,2300,-164,171,-169,2024-01-24 10:26:16,0.0
18940,-372,2520,-141,173,-174,2024-01-24 10:26:16,0.0
18964,-376,2364,-174,138,-190,2024-01-24 10:26:16,0.0
18988,-432,2256,-171,112,-179,2024-01-24 10:26:16,0.0
18944,-280,2252,-144,215,-205,2024-01-24 10:26:16,0.0
19052,-220,2324,-158,239,-172,2024-01-24 10:26:16,0.0
18988,-172,2432,-174,189,-172,2024-01-24 10:26:16,0.0
19056,-160,2288,-156,152,-170,2024-01-24 10:26:16,0.0
18872,-376,2344,-175,133,-201,2024-01-24 10:26:16,0.0
18948,-336,2120,-144,123,-187,2024-01-24 10:26:16,0.0
18924,-284,2108,-146,220,-181,2024-01-24 10:26:16,0.0
18944,-364,2316,-163,237,-148,2024-01-24 10:26:16,0.0
18972,-336,2456,-164,177,-168,2024-01-24 10:26:16,0.0
19004,-348,2364,-176,143,-187,2024-01-24 10:26:16,0.0
18944,-316,2184,-144,115,-185,2024-01-24 10:26:16,0.0
18912,-304,2240,-151,184,-166,2024-01-24 10:26:16,0.0
19032,-264,2392,-193,232,-172,2024-01-24 10:26:16,0.0
18944,-260,2512,-160,227,-195,2024-01-24 10:26:16,0.0
18996,-284,2360,-176,175,-177,2024-01-24 10:26:16,0.0
18900,-276,2444,-154,131,-199,2024-01-24 10:26:16,0.0
18924,-340,2392,-201,172,-179,2024-01-24 10:26:16,0.0
18844,-460,2372,-179,208,-183,2024-01-24 10:26:16,0.0
19000,-432,2400,-166,214,-154,2024-01-24 10:26:16,0.0
19004,-244,2312,-180,164,-180,2024-01-24 10:26:16,0.0
18896,-296,2372,-150,156,-200,2024-01-24 10:26:16,0.0
18968,-216,2392,-173,150,-175,2024-01-24 10:26:16,0.0
18960,-196,2284,-160,183,-183,2024-01-24 10:26:16,0.0
18904,-244,2388,-161,208,-180,2024-01-24 10:26:16,0.0
18888,-244,2476,-159,175,-167,2024-01-24 10:26:16,0.0
18960,-184,2324,-183,187,-191,2024-01-24 10:26:16,0.0
18992,-284,2300,-163,151,-183,2024-01-24 10:26:16,0.0
19020,-360,2352,-180,160,-160,2024-01-24 10:26:16,0.0
18944,-368,2300,-182,194,-174,2024-01-24 10:26:16,0.0
18940,-212,2336,-153,190,-188,2024-01-24 10:26:16,0.0
18932,-296,2380,-177,208,-190,2024-01-24 10:26:16,0.0
18912,-288,2468,-185,176,-170,2024-01-24 10:26:16,0.0
18932,-184,2372,-142,131,-163,2024-01-24 10:26:16,0.0
19052,-296,2296,-165,158,-175,2024-01-24 10:26:16,0.0
18840,-292,2248,-169,239,-172,2024-01-24 10:26:16,0.0
18952,-332,2504,-161,164,-176,2024-01-24 10:26:16,0.0
18976,-368,2404,-193,157,-203,2024-01-24 10:26:16,0.0
18960,-360,2316,-193,195,-181,2024-01-24 10:26:16,0.0
19068,-284,2396,-161,157,-189,2024-01-24 10:26:16,0.0
19016,-444,2340,-153,159,-201,2024-01-24 10:26:16,0.0
19156,-176,2272,-140,237,-184,2024-01-24 10:26:16,0.0
18976,-276,2300,-164,182,-178,2024-01-24 10:26:16,0.0
18972,-144,2396,-173,162,-189,2024-01-24 10:26:16,0.0
18992,-200,2300,-148,175,-185,2024-01-24 10:26:16,0.0
18988,-252,2352,-131,198,-192,2024-01-24 10:26:16,0.0
18924,-264,2204,-181,181,-171,2024-01-24 10:26:17,0.0
19020,-368,2340,-160,215,-166,2024-01-24 10:26:17,0.0
19012,-404,2320,-177,165,-181,2024-01-24 10:26:17,0.0
18964,-412,2252,-126,109,-191,2024-01-24 10:26:17,0.0
18904,-344,2448,-145,183,-181,2024-01-24 10:26:17,0.0
18920,-200,2264,-184,203,-161,2024-01-24 10:26:17,0.0
18992,-228,2372,-169,178,-175,2024-01-24 10:26:17,0.0
18940,-264,2352,-156,175,-177,2024-01-24 10:26:17,0.0
18904,-184,2396,-169,189,-194,2024-01-24 10:26:17,0.0
18992,-312,2240,-150,183,-163,2024-01-24 10:26:17,0.0
18956,-372,2400,-157,207,-176,2024-01-24 10:26:17,0.0
18984,-492,2292,-146,208,-164,2024-01-24 10:26:17,0.0
18988,-368,2496,-186,190,-178,2024-01-24 10:26:17,0.0
19024,-288,2388,-163,171,-179,2024-01-24 10:26:17,0.0
19020,-308,2316,-185,147,-183,2024-01-24 10:26:17,0.0
18908,-256,2232,-167,151,-180,2024-01-24 10:26:17,0.0
18900,-236,2392,-190,172,-191,2024-01-24 10:26:17,0.0
18944,-92,2428,-173,198,-171,2024-01-24 10:26:17,0.0
18964,-236,2356,-171,206,-177,2024-01-24 10:26:17,0.0
18956,-264,2436,-165,154,-159,2024-01-24 10:26:17,0.0
18820,-496,2472,-170,177,-169,2024-01-24 10:26:17,0.0
18932,-380,2420,-148,159,-180,2024-01-24 10:26:17,0.0
18916,-472,2348,-175,162,-177,2024-01-24 10:26:17,0.0
18992,-276,2336,-179,205,-177,2024-01-24 10:26:17,0.0
19092,-296,2412,-170,154,-176,2024-01-24 10:26:17,0.0
19052,-176,2420,-157,186,-191,2024-01-24 10:26:17,0.0
18980,-308,2356,-171,189,-181,2024-01-24 10:26:17,0.0
18944,-228,2224,-178,176,-185,2024-01-24 10:26:17,
18980,-356,2236,-154,189,-176,2024-01-24 10:26:17,0.0
18944,-276,2324,-159,205,-167,2024-01-24 10:26:17,0.0
19020,-376,2488,-162,196,-182,2024-01-24 10:26:17,0.0
19020,-312,2300,-159,136,-181,2024-01-24 10:26:17,0.0
18880,-296,2252,-170,156,-166,2024-01-24 10:26:17,0.0
18960,-304,2272,-177,221,-174,2024-01-24 10:26:17,0.0
19048,-296,2292,-157,185,-183,2024-01-24 10:26:17,0.0
18952,-212,2344,-186,186,-185,2024-01-24 10:26:17,0.0
19012,-292,2312,-148,157,-206,2024-01-24 10:26:17,0.0
18960,-148,2312,-163,170,-178,2024-01-24 10:26:17,0.0
18916,-208,2344,-156,147,-193,2024-01-24 10:26:17,0.0
18972,-252,2448,-166,195,-173,2024-01-24 10:26:17,0.0
19036,-348,2644,-153,176,-178,2024-01-24 10:26:17,0.0
19048,-372,2412,-183,187,-161,2024-01-24 10:26:17,0.0
18836,-356,2368,-153,182,-198,2024-01-24 10:26:17,0.0
18952,-452,2368,-162,165,-184,2024-01-24 10:26:17,0.0
18976,-360,2384,-171,198,-162,2024-01-24 10:26:17,0.0
19040,-284,2360,-154,176,-172,2024-01-24 10:26:17,0.0
18960,-288,2320,-152,187,-198,2024-01-24 10:26:17,0.0
18944,-224,2372,-164,174,-190,2024-01-24 10:26:17,0.0
19012,-228,2288,-133,155,-191,2024-01-24 10:26:17,0.0
18888,-288,2348,-182,181,-199,2024-01-24 10:26:17,0.0
18976,-308,2448,-164,225,-163,2024-01-24 10:26:17,0.0
18976,-364,2468,-161,193,-154,2024-01-24 10:26:17,0.0
19020,-344,2440,-164,160,-189,2024-01-24 10:26:17,0.0
18880,-392,2344,-159,132,-178,2024-01-24 10:26:17,0.0
18952,-332,2260,-166,194,-206,2024-01-24 10:26:17,0.0
18992,-256,2352,-138,205,-157,2024-01-24 10:26:17,0.0
18980,-304,2352,-169,198,-172,2024-01-24 10:26:17,0.0
18928,-264,2580,-168,146,-182,2024-01-24 10:26:17,0.0
19104,-152,2344,-186,142,-169,2024-01-24 10:26:17,0.0
18880,-236,2284,-161,144,-174,2024-01-24 10:26:18,0.0
18976,-324,2220,-175,224,-178,2024-01-24 10:26:18,0.0
18848,-312,2332,-164,200,-176,2024-01-24 10:26:18,0.0
18904,-288,2580,-167,206,-178,2024-01-24 10:26:18,0.0
18968,-300,2444,-177,137,-192,2024-01-24 10:26:18,0.0
19012,-360,2344,-181,147,-190,2024-01-24 10:26:18,0.0
18896,-200,2272,-162,163,-194,2024-01-24 10:26:18,0.0
19028,-280,2276,-207,222,-202,2024-01-24 10:26:18,0.0
18916,-204,2396,-167,161,-165,2024-01-24 10:26:18,0.0
18996,-196,2316,-175,189,-187,2024-01-24 10:26:18,0.0
18920,-240,2324,-181,170,-185,2024-01-24 10:26:18,0.0
18944,-340,2336,-163,182,-196,2024-01-24 10:26:18,0.0
18888,-336,2252,-179,194,-169,2024-01-24 10:26:18,0.0
19028,-344,2460,-158,202,-166,2024-01-24 10:26:18,0.0
18968,-288,2500,-158,186,-175,2024-01-24 10:26:18,0.0
19064,-384,2420,-140,161,-162,2024-01-24 10:26:18,0.0
19004,-324,2396,-154,164,-179,2024-01-24 10:26:18,0.0
18960,-240,2344,-187,150,-171,2024-01-24 10:26:18,0.0
18944,-276,2316,-169,192,-171,2024-01-24 10:26:18,0.0
18892,-232,2240,-178,176,-165,2024-01-24 10:26:18,0.0
18944,-192,2580,-154,165,-186,2024-01-24 10:26:18,0.0
18996,-340,2484,-181,166,-174,2024-01-24 10:26:18,0.0
18880,-344,2400,-164,168,-189,2024-01-24 10:26:18,0.0
19040,-396,2296,-175,164,-178,2024-01-24 10:26:18,0.0
18988,-296,2368,-160,183,-167,2024-01-24 10:26:18,0.0
19000,-272,2468,-173,186,-189,2024-01-24 10:26:18,0.0
18996,-380,2496,-164,156,-172,2024-01-24 10:26:18,0.0
18880,-236,2296,-193,167,-181,2024-01-24 10:26:18,0.0
18912,-176,2364,-139,164,-186,2024-01-24 10:26:18,0.0
19064,-272,2428,-172,214,-143,2024-01-24 10:26:18,0.0
19052,-184,2328,-162,212,-186,2024-01-24 10:26:18,0.0
18948,-192,2392,-150,164,-187,2024-01-24 10:26:18,0.0
18908,-256,2428,-150,151,-189,2024-01-24 10:26:18,0.0
18992,-364,2328,-184,177,-175,2024-01-24 10:26:18,0.0
18984,-208,2468,-163,186,-171,2024-01-24 10:26:18,0.0
18988,-236,2404,-191,209,-172,2024-01-24 10:26:18,0.0
18992,-272,2408,-168,167,-191,2024-01-24 10:26:18,0.0
19012,-256,2364,-167,200,-188,2024-01-24 10:26:18,0.0
18972,-172,2236,-174,151,-205,2024-01-24 10:26:18,0.0
18948,-236,2316,-173,199,-168,2024-01-24 10:26:18,0.0
19072,-280,2376,-178,191,-178,2024-01-24 10:26:18,0.0
18956,-384,2356,-175,204,-167,2024-01-24 10:26:18,0.0
18924,-392,2408,-181,183,-201,2024-01-24 10:26:18,0.0
19108,-284,2316,-175,149,-205,2024-01-24 10:26:18,0.0
19004,-356,2440,-201,204,-176,2024-01-24 10:26:18,0.0
19012,-344,2324,-154,180,-185,2024-01-24 10:26:18,0.0
19016,-304,2436,-177,163,-180,2024-01-24 10:26:18,0.0
18968,-228,2248,-174,167,-186,2024-01-24 10:26:18,0.0
18960,-228,2348,-174,180,-164,2024-01-24 10:26:18,0.0
19012,-220,2268,-184,164,-189,2024-01-24 10:26:18,0.0
19000,-320,2344,-180,189,-163,2024-01-24 10:26:18,0.0
18868,-244,2420,-146,188,-193,2024-01-24 10:26:18,0.0
18928,-316,2408,-156,176,-186,2024-01-24 10:26:18,0.0
19016,-296,2260,-173,160,-181,2024-01-24 10:26:18,0.0
18932,-372,2336,-170,147,-187,2024-01-24 10:26:18,0.0
18964,-388,2420,-186,190,-180,2024-01-24 10:26:18,0.0
18936,-264,2436,-169,157,-189,2024-01-24 10:26:18,0.0
18952,-240,2348,-160,181,-168,2024-01-24 10:26:18,0.0
18960,-284,2388,-176,152,-187,2024-01-24 10:26:18,0.0
18968,-216,2240,-176,182,-163,2024-01-24 10:26:18,0.0
18916,-256,2300,-162,183,-182,2024-01-24 10:26:19,0.0
19040,-308,2392,-179,203,-194,2024-01-24 10:26:19,0.0
18964,-276,2172,-178,199,-203,2024-01-24 10:26:19,0.0
18952,-416,2352,-189,188,-208,2024-01-24 10:26:19,0.0
18780,-256,2368,-167,154,-187,2024-01-24 10:26:19,0.0
18980,-296,2340,-166,165,-211,2024-01-24 10:26:19,0.0
18960,-232,2436,-184,185,-180,2024-01-24 10:26:19,0.0
18980,-252,2468,-170,161,-185,2024-01-24 10:26:19,0.0
18908,-264,2364,-145,158,-178,2024-01-24 10:26:19,
18948,-276,2268,-186,160,-187,2024-01-24 10:26:19,0.0
18968,-284,2496,-173,183,-185,2024-01-24 10:26:19,0.0
18964,-348,2312,-163,183,-162,2024-01-24 10:26:19,0.0
18940,-300,2344,-183,183,-168,2024-01-24 10:26:19,0.0
18948,-344,2468,-176,168,-177,2024-01-24 10:26:19,0.0
19040,-320,2316,-163,188,-185,2024-01-24 10:26:19,0.0
18980,-280,2232,-176,140,-187,2024-01-24 10:26:19,0.0
18944,-228,2312,-181,156,-178,2024-01-24 10:26:19,0.0
18912,-232,2460,-169,194,-192,2024-01-24 10:26:19,0.0
18828,-252,2436,-154,170,-170,2024-01-24 10:26:19,0.0
18916,-188,2368,-173,179,-181,2024-01-24 10:26:19,0.0
18996,-304,2280,-178,192,-184,2024-01-24 10:26:19,0.0
18876,-348,2484,-181,206,-203,2024-01-24 10:26:19,0.0
18944,-272,2516,-161,169,-169,2024-01-24 10:26:19,0.0
18964,-340,2276,-197,158,-188,2024-01-24 10:26:19,0.0
19052,-328,2508,-186,186,-183,2024-01-24 10:26:19,0.0
18952,-284,2296,-123,138,-174,2024-01-24 10:26:19,0.0
18992,-408,2208,-182,200,-191,2024-01-24 10:26:19,0.0
18900,-308,2508,-167,176,-177,2024-01-24 10:26:19,0.0
19072,-228,2420,-166,161,-186,2024-01-24 10:26:19,0.0
19032,-288,2344,-168,171,-182,2024-01-24 10:26:19,0.0
19084,-260,2324,-181,160,-181,2024-01-24 10:26:19,0.0
19072,-296,2392,-173,177,-191,2024-01-24 10:26:19,0.0
18916,-364,2280,-169,183,-186,2024-01-24 10:26:19,0.0
18896,-344,2576,-189,197,-166,2024-01-24 10:26:19,0.0
19068,-340,2440,-165,160,-194,2024-01-24 10:26:19,0.0
18928,-296,2408,-144,170,-186,2024-01-24 10:26:19,0.0
19004,-284,2364,-146,165,-168,2024-01-24 10:26:19,0.0
19056,-244,2380,-196,203,-158,2024-01-24 10:26:19,0.0
19064,-356,2384,-169,194,-170,2024-01-24 10:26:19,0.0
18960,-268,2392,-165,165,-179,2024-01-24 10:26:19,0.0
18996,-304,2292,-186,165,-182,2024-01-24 10:26:19,0.0
18948,-256,2340,-181,142,-202,2024-01-24 10:26:19,0.0
19004,-240,2404,-173,188,-179,2024-01-24 10:26:19,0.0
19000,-236,2272,-172,202,-178,2024-01-24 10:26:19,0.0
18968,-368,2364,-154,184,-181,2024-01-24 10:26:19,0.0
19072,-364,2412,-173,147,-183,2024-01-24 10:26:19,0.0
19044,-260,2280,-192,158,-181,2024-01-24 10:26:19,0.0
19012,-332,2276,-149,162,-186,2024-01-24 10:26:19,0.0
18988,-304,2376,-190,213,-192,2024-01-24 10:26:19,0.0
18896,-420,2412,-149,196,-176,2024-01-24 10:26:19,0.0
18996,-320,2336,-171,169,-187,2024-01-24 10:26:19,0.0
18996,-252,2268,-156,148,-196,2024-01-24 10:26:19,0.0
18952,-200,2324,-177,158,-187,2024-01-24 10:26:19,0.0
18900,-312,2356,-153,183,-188,2024-01-24 10:26:19,0.0
19084,-352,2404,-151,227,-174,2024-01-24 10:26:19,0.0
18996,-288,2356,-176,168,-166,2024-01-24 10:26:19,0.0
18968,-336,2400,-166,158,-191,2024-01-24 10:26:19,0.0
18888,-276,2228,-177,124,-178,2024-01-24 10:26:19,0.0
19012,-348,2292,-168,196,-166,2024-01-24 10:26:19,0.0
18964,-344,2224,-157,207,-200,2024-01-24 10:26:19,0.0
18876,-232,2284,-165,194,-187,2024-01-24 10:26:20,0.0
19044,-368,2344,-190,170,-178,2024-01-24 10:26:20,0.0
18972,-320,2400,-178,167,-187,2024-01-24 10:26:20,0.0
18864,-344,2272,-183,207,-175,2024-01-24 10:26:20,0.0
18996,-356,2324,-163,196,-192,2024-01-24 10:26:20,0.0
19016,-240,2460,-149,173,-153,2024-01-24 10:26:20,0.0
19024,-232,2436,-167,193,-154,2024-01-24 10:26:20,0.0
18932,-272,2396,-134,154,-174,2024-01-24 10:26:20,0.0
18912,-288,2280,-155,174,-172,2024-01-24 10:26:20,0.0
18980,-340,2348,-192,170,-188,2024-01-24 10:26:20,0.0
18964,-260,2344,-168,174,-168,2024-01-24 10:26:20,0.0
19052,-180,2496,-162,173,-195,2024-01-24 10:26:20,0.0
19012,-252,2464,-176,191,-171,2024-01-24 10:26:20,0.0
18920,-284,2336,-169,115,-198,2024-01-24 10:26:20,0.0
18908,-316,2216,-161,176,-190,2024-01-24 10:26:20,0.0
18864,-244,2304,-176,192,-172,2024-01-24 10:26:20,0.0
18988,-316,2340,-192,171,-160,2024-01-24 10:26:20,0.0
19016,-368,2528,-151,164,-179,2024-01-24 10:26:20,0.0
18912,-340,2316,-174,149,-161,2024-01-24 10:26:20,0.0
19012,-288,2244,-182,162,-172,2024-01-24 10:26:20,0.0
18916,-308,2260,-153,172,-164,2024-01-24 10:26:20,0.0
18936,-248,2452,-172,192,-181,2024-01-24 10:26:20,0.0
18932,-272,2620,-203,183,-182,2024-01-24 10:26:20,0.0
18908,-296,2528,-165,172,-193,2024-01-24 10:26:20,0.0
19044,-276,2264,-167,152,-196,2024-01-24 10:26:20,0.0
18948,-320,2188,-138,184,-210,2024-01-24 10:26:20,0.0
18952,-296,2384,-177,196,-185,2024-01-24 10:26:20,0.0
18960,-296,2444,-153,172,-189,2024-01-24 10:26:20,0.0
18972,-236,2400,-161,145,-195,2024-01-24 10:26:20,0.0
18944,-212,2340,-152,162,-186,2024-01-24 10:26:20,0.0
19000,-340,2336,-165,186,-180,2024-01-24 10:26:20,0.0
18960,-308,2172,-163,185,-174,2024-01-24 10:26:20,0.0
19016,-264,2408,-149,179,-184,2024-01-24 10:26:20,0.0
18968,-348,2456,-173,181,-181,2024-01-24 10:26:20,0.0
18932,-296,2232,-154,159,-187,2024-01-24 10:26:20,0.0
18936,-292,2408,-191,191,-193,2024-01-24 10:26:20,0.0
18992,-252,2300,-177,177,-177,2024-01-24 10:26:20,0.0
18984,-236,2436,-173,175,-195,2024-01-24 10:26:20,0.0
18964,-384,2304,-175,182,-169,2024-01-24 10:26:20,0.0
18964,-316,2116,-174,158,-189,2024-01-24 10:26:20,0.0
18868,-220,2460,-157,177,-195,2024-01-24 10:26:20,0.0
18900,-216,2368,-156,167,-164,2024-01-24 10:26:20,0.0
18876,-256,2388,-151,168,-147,2024-01-24 10:26:20,0.0
18972,-232,2440,-147,172,-161,2024-01-24 10:26:20,0.0
19028,-256,2364,-187,169,-196,2024-01-24 10:26:20,0.0
19016,-376,2404,-149,149,-179,2024-01-24 10:26:20,0.0
19032,-300,2136,-143,185,-197,2024-01-24 10:26:20,0.0
18880,-280,2424,-161,195,-178,2024-01-24 10:26:20,0.0
18876,-224,2412,-186,209,-162,2024-01-24 10:26:20,
18884,-332,2420,-158,171,-207,2024-01-24 10:26:20,0.0
18900,-216,2368,-190,170,-178,2024-01-24 10:26:20,0.0
18952,-252,2384,-165,192,-173,2024-01-24 10:26:20,0.0
18852,-260,2332,-159,192,-174,2024-01-24 10:26:20,0.0
18972,-228,2336,-170,187,-179,2024-01-24 10:26:20,0.0
18968,-260,2320,-162,172,-202,2024-01-24 10:26:20,0.0
18956,-228,2372,-174,162,-189,2024-01-24 10:26:20,0.0
19092,-240,2264,-173,180,-174,2024-01-24 10:26:20,0.0
18912,-276,2248,-173,188,-172,2024-01-24 10:26:20,0.0
18980,-264,2380,-151,178,-182,2024-01-24 10:26:20,0.0
18976,-280,2244,-170,166,-165,2024-01-24 10:26:21,0.0
18952,-260,2292,-193,164,-171,2024-01-24 10:26:21,0.0
18936,-300,2316,-184,219,-203,2024-01-24 10:26:21,0.0
18980,-280,2372,-174,188,-184,2024-01-24 10:26:21,0.0
18948,-208,2340,-141,177,-196,2024-01-24 10:26:21,0.0
18836,-228,2448,-136,179,-176,2024-01-24 10:26:21,0.0
18900,-248,2304,-190,173,-187,2024-01-24 10:26:21,0.0
18936,-176,2300,-173,195,-152,2024-01-24 10:26:21,0.0
18924,-296,2480,-158,185,-158,2024-01-24 10:26:21,0.0
19012,-196,2408,-164,171,-194,2024-01-24 10:26:21,0.0
18952,-268,2396,-193,201,-177,2024-01-24 10:26:21,0.0
18976,-264,2372,-173,177,-189,2024-01-24 10:26:21,0.0
18952,-200,2340,-171,154,-189,2024-01-24 10:26:21,0.0
18916,-332,2348,-189,151,-172,2024-01-24 10:26:21,0.0
18956,-248,2428,-170,180,-188,2024-01-24 10:26:21,0.0
19000,-268,2396,-160,169,-177,2024-01-24 10:26:21,0.0
18984,-244,2548,-175,197,-189,2024-01-24 10:26:21,0.0
19012,-220,2160,-174,188,-186,2024-01-24 10:26:21,0.0
18932,-312,2280,-170,191,-196,2024-01-24 10:26:21,0.0
18960,-164,2200,-181,180,-169,2024-01-24 10:26:21,0.0
19016,-208,2320,-163,172,-183,2024-01-24 10:26:21,0.0
18912,-284,2376,-168,178,-175,2024-01-24 10:26:21,0.0
18932,-264,2432,-210,187,-178,2024-01-24 10:26:21,0.0
19084,-324,2184,-163,161,-176,2024-01-24 10:26:21,0.0
18916,-420,2440,-114,171,-200,2024-01-24 10:26:21,0.0
19004,-392,2396,-178,205,-166,2024-01-24 10:26:21,0.0
18896,-344,2328,-148,170,-183,2024-01-24 10:26:21,0.0
19012,-228,2316,-183,171,-183,2024-01-24 10:26:21,0.0
19000,-268,2512,-162,177,-181,2024-01-24 10:26:21,0.0
19012,-300,2316,-185,176,-199,2024-01-24 10:26:21,0.0
18956,-232,2304,-171,169,-196,2024-01-24 10:26:21,0.0
18936,-120,2428,-181,173,-191,2024-01-24 10:26:21,0.0
18976,-220,2324,-138,168,-179,2024-01-24 10:26:21,0.0
18988,-212,2464,-174,206,-189,2024-01-24 10:26:21,0.0
18920,-380,2560,-163,164,-164,2024-01-24 10:26:21,0.0
19028,-484,2412,-155,152,-180,2024-01-24 10:26:21,0.0
18944,-372,2304,-146,166,-182,2024-01-24 10:26:21,0.0
18940,-272,2352,-175,191,-188,2024-01-24 10:26:21,0.0
18964,-276,2320,-131,188,-185,2024-01-24 10:26:21,0.0
18936,-208,2340,-165,164,-156,2024-01-24 10:26:21,0.0
19044,-240,2368,-185,181,-191,2024-01-24 10:26:21,0.0
18852,-172,2352,-154,155,-182,2024-01-24 10:26:21,0.0
19032,-280,2420,-172,184,-160,2024-01-24 10:26:21,0.0
18896,-264,2356,-170,187,-168,2024-01-24 10:26:21,0.0
18948,-240,2384,-168,173,-181,2024-01-24 10:26:21,0.0
18964,-296,2520,-154,194,-185,2024-01-24 10:26:21,0.0
19000,-268,2344,-177,162,-178,2024-01-24 10:26:21,0.0
19028,-268,2228,-173,166,-207,2024-01-24 10:26:21,0.0
18896,-284,2452,-170,204,-177,2024-01-24 10:26:21,0.0
18908,-308,2460,-169,178,-164,2024-01-24 10:26:21,0.0
18976,-276,2372,-148,203,-190,2024-01-24 10:26:21,0.0
18964,-284,2440,-182,187,-186,2024-01-24 10:26:21,0.0
18940,-312,2480,-145,189,-182,2024-01-24 10:26:21,0.0
18996,-324,2388,-164,187,-186,2024-01-24 10:26:21,0.0
18952,-292,2392,-179,188,-188,2024-01-24 10:26:21,0.0
19028,-404,2336,-186,180,-167,2024-01-24 10:26:21,0.0
19000,-320,2324,-168,165,-180,2024-01-24 10:26:21,0.0
18908,-404,2460,-144,191,-164,2024-01-24 10:26:21,0.0
19004,-444,2388,-154,161,-170,2024-01-24 10:26:21,0.0
18968,-248,2392,-161,172,-171,2024-01-24 10:26:21,0.0
18940,-288,2236,-168,202,-176,2024-01-24 10:26:22,0.0
18980,-260,2360,-172,187,-186,2024-01-24 10:26:22,0.0
18916,-304,2248,-171,194,-197,2024-01-24 10:26:22,0.0
18840,-268,2508,-168,168,-163,2024-01-24 10:26:22,0.0
18992,-304,2364,-169,170,-170,2024-01-24 10:26:22,0.0
18900,-300,2272,-171,163,-163,2024-01-24 10:26:22,0.0
18948,-344,2392,-131,187,-185,2024-01-24 10:26:22,0.0
18996,-472,2348,-177,204,-196,2024-01-24 10:26:22,0.0
18988,-352,2320,-166,179,-182,2024-01-24 10:26:22,0.0
18932,-304,2408,-156,156,-171,2024-01-24 10:26:22,0.0
18928,-224,2296,-172,178,-194,2024-01-24 10:26:22,0.0
18884,-280,2368,-176,211,-142,2024-01-24 10:26:22,0.0
18984,-296,2352,-161,193,-171,2024-01-24 10:26:22,0.0
19008,-272,2372,-179,190,-184,2024-01-24 10:26:22,0.0
18952,-276,2304,-201,169,-192,2024-01-24 10:26:22,0.0
18916,-252,2296,-179,191,-190,2024-01-24 10:26:22,0.0
18964,-412,2276,-182,218,-170,2024-01-24 10:26:22,0.0
19012,-280,2292,-180,174,-168,2024-01-24 10:26:22,0.0
18932,-284,2432,-182,185,-178,2024-01-24 10:26:22,0.0
18900,-260,2364,-144,167,-200,2024-01-24 10:26:22,0.0
18944,-232,2400,-145,170,-155,2024-01-24 10:26:22,0.0
18988,-276,2372,-176,174,-169,2024-01-24 10:26:22,0.0
18892,-320,2460,-144,160,-173,2024-01-24 10:26:22,0.0
18976,-228,2184,-164,201,-206,2024-01-24 10:26:22,0.0
18980,-332,2296,-197,169,-184,2024-01-24 10:26:22,0.0
18888,-212,2252,-171,169,-173,2024-01-24 10:26:22,0.0
18968,-236,2348,-168,178,-163,2024-01-24 10:26:22,0.0
18928,-192,2316,-169,150,-163,2024-01-24 10:26:22,0.0
18908,-304,2324,-177,172,-198,2024-01-24 10:26:22,0.0
19048,-184,2492,-170,208,-174,2024-01-24 10:26:22,
18980,-232,2216,-173,186,-174,2024-01-24 10:26:22,0.0
18972,-352,2452,-189,189,-164,2024-01-24 10:26:22,0.0
18976,-240,2220,-157,170,-170,2024-01-24 10:26:22,0.0
18968,-252,2380,-170,173,-177,2024-01-24 10:26:22,0.0
18876,-284,2560,-162,155,-168,2024-01-24 10:26:22,0.0
18908,-344,2400,-159,188,-162,2024-01-24 10:26:22,0.0
18980,-272,2460,-170,173,-190,2024-01-24 10:26:22,0.0
18944,-252,2344,-180,154,-201,2024-01-24 10:26:22,0.0
18972,-300,2464,-153,189,-179,2024-01-24 10:26:22,0.0
19020,-248,2268,-162,191,-197,2024-01-24 10:26:22,0.0
18964,-244,2400,-181,175,-191,2024-01-24 10:26:22,0.0
18908,-320,2380,-160,161,-168,2024-01-24 10:26:22,0.0
19032,-300,2356,-174,155,-190,2024-01-24 10:26:22,0.0
18980,-280,2372,-161,168,-181,2024-01-24 10:26:22,0.0
18872,-252,2400,-173,180,-213,2024-01-24 10:26:22,0.0
18968,-384,2268,-188,181,-182,2024-01-24 10:26:22,0.0
18964,-352,2392,-159,179,-192,2024-01-24 10:26:22,0.0
18928,-284,2316,-199,184,-175,2024-01-24 10:26:22,0.0
18972,-248,2304,-153,179,-165,2024-01-24 10:26:22,0.0
18952,-336,2416,-171,165,-185,2024-01-24 10:26:22,0.0
18976,-240,2408,-187,179,-174,2024-01-24 10:26:22,0.0
18924,-264,2432,-141,167,-177,2024-01-24 10:26:22,0.0
18960,-296,2504,-166,173,-183,2024-01-24 10:26:22,0.0
19004,-208,2404,-150,179,-180,2024-01-24 10:26:22,0.0
18996,-256,2216,-172,192,-176,2024-01-24 10:26:22,0.0
18816,-280,2396,-161,155,-181,2024-01-24 10:26:22,0.0
19004,-248,2312,-172,191,-185,2024-01-24 10:26:22,0.0
19020,-376,2404,-175,182,-188,2024-01-24 10:26:22,0.0
19020,-292,2416,-182,177,-181,2024-01-24 10:26:22,0.0
18932,-308,2260,-147,178,-169,2024-01-24 10:26:22,0.0
19044,-244,2312,-140,173,-189,2024-01-24 10:26:23,0.0
18960,-220,2260,-181,175,-183,2024-01-24 10:26:23,0.0
18948,-260,2428,-184,168,-192,2024-01-24 10:26:23,0.0
19016,-260,2460,-165,150,-192,2024-01-24 10:26:23,0.0
18960,-312,2424,-168,167,-188,2024-01-24 10:26:23,0.0
18988,-220,2372,-184,172,-168,2024-01-24 10:26:23,0.0
18992,-220,2420,-177,184,-180,2024-01-24 10:26:23,0.0
18908,-292,2376,-170,201,-169,2024-01-24 10:26:23,0.0
19088,-332,2264,-145,177,-199,2024-01-24 10:26:23,0.0
18944,-268,2376,-163,171,-183,2024-01-24 10:26:23,0.0
18900,-280,2332,-180,179,-179,2024-01-24 10:26:23,0.0
18948,-316,2500,-157,195,-181,2024-01-24 10:26:23,0.0
19008,-256,2420,-157,172,-181,2024-01-24 10:26:23,0.0
18960,-312,2388,-193,148,-200,2024-01-24 10:26:23,0.0
18916,-268,2484,-185,157,-174,2024-01-24 10:26:23,0.0
18968,-168,2248,-171,163,-181,2024-01-24 10:26:23,0.0
18984,-272,2444,-162,176,-188,2024-01-24 10:26:23,0.0
18916,-284,2352,-194,187,-186,2024-01-24 10:26:23,0.0
18976,-308,2368,-161,171,-192,2024-01-24 10:26:23,0.0
19044,-332,2240,-167,184,-189,2024-01-24 10:26:23,0.0
19036,-300,2336,-172,170,-192,2024-01-24 10:26:23,0.0
19028,-228,2240,-165,172,-189,2024-01-24 10:26:23,0.0
18948,-240,2444,-147,191,-176,2024-01-24 10:26:23,0.0
18956,-168,2300,-153,203,-159,2024-01-24 10:26:23,0.0
18932,-324,2368,-160,169,-187,2024-01-24 10:26:23,0.0
18988,-288,2432,-172,196,-195,2024-01-24 10:26:23,0.0
18920,-304,2292,-150,179,-173,2024-01-24 10:26:23,0.0
18952,-312,2428,-178,161,-161,2024-01-24 10:26:23,0.0
18964,-296,2348,-157,157,-184,2024-01-24 10:26:23,0.0
19008,-284,2304,-164,159,-182,2024-01-24 10:26:23,0.0
18892,-304,2252,-163,170,-203,2024-01-24 10:26:23,0.0
18928,-352,2248,-162,187,-183,2024-01-24 10:26:23,0.0
19028,-284,2404,-186,171,-187,2024-01-24 10:26:23,0.0
18976,-244,2256,-147,190,-179,2024-01-24 10:26:23,0.0
19008,-244,2356,-186,179,-188,2024-01-24 10:26:23,0.0
18964,-300,2400,-141,171,-166,2024-01-24 10:26:23,0.0
18900,-224,2192,-161,190,-189,2024-01-24 10:26:23,0.0
18996,-220,2316,-177,204,-174,2024-01-24 10:26:23,0.0
18996,-328,2408,-144,180,-191,2024-01-24 10:26:23,0.0
18940,-324,2404,-180,181,-166,2024-01-24 10:26:23,0.0
18960,-356,2304,-181,163,-166,2024-01-24 10:26:23,0.0
18972,-328,2420,-157,176,-169,2024-01-24 10:26:23,0.0
19044,-232,2340,-141,169,-190,2024-01-24 10:26:23,0.0
18924,-244,2284,-144,172,-173,2024-01-24 10:26:23,0.0
18960,-296,2372,-221,167,-174,2024-01-24 10:26:23,0.0
18944,-220,2468,-170,170,-188,2024-01-24 10:26:23,0.0
18980,-132,2388,-160,189,-180,2024-01-24 10:26:23,0.0
19040,-268,2468,-188,185,-169,2024-01-24 10:26:23,0.0
18888,-388,2400,-163,200,-171,2024-01-24 10:26:23,0.0
18932,-324,2384,-164,195,-172,2024-01-24 10:26:23,0.0
18968,-312,2412,-137,181,-193,2024-01-24 10:26:23,0.0
18984,-332,2236,-198,179,-188,2024-01-24 10:26:23,0.0
18940,-332,2276,-166,154,-170,2024-01-24 10:26:23,0.0
19024,-244,2308,-187,206,-183,2024-01-24 10:26:23,0.0
18892,-284,2308,-185,165,-182,2024-01-24 10:26:23,0.0
18936,-196,2220,-167,182,-187,2024-01-24 10:26:23,0.0
18924,-320,2392,-167,162,-189,2024-01-24 10:26:23,0.0
18972,-240,2252,-165,181,-176,2024-01-24 10:26:23,0.0
18896,-284,2344,-160,206,-203,2024-01-24 10:26:23,0.0
19000,-372,2324,-145,159,-186,2024-01-24 10:26:24,0.0
18972,-316,2316,-174,172,-166,2024-01-24 10:26:24,0.0
18960,-236,2396,-191,149,-188,2024-01-24 10:26:24,0.0
18968,-292,2420,-177,189,-208,2024-01-24 10:26:24,0.0
18880,-188,2436,-147,179,-190,2024-01-24 10:26:24,0.0
18904,-304,2448,-190,173,-186,2024-01-24 10:26:24,0.0
18944,-288,2272,-158,176,-187,2024-01-24 10:26:24,0.0
18872,-288,2412,-192,158,-164,2024-01-24 10:26:24,0.0
18896,-300,2324,-164,161,-158,2024-01-24 10:26:24,0.0
18960,-340,2320,-157,188,-184,2024-01-24 10:26:24,0.0
18996,-336,2356,-153,166,-166,2024-01-24 10:26:24,
19008,-332,2492,-146,164,-188,2024-01-24 10:26:24,0.0
19024,-328,2372,-179,158,-162,2024-01-24 10:26:24,0.0
19004,-240,2312,-173,196,-174,2024-01-24 10:26:24,0.0
18980,-272,2324,-172,181,-180,2024-01-24 10:26:24,0.0
19004,-212,2268,-191,153,-190,2024-01-24 10:26:24,0.0
18944,-288,2384,-160,179,-197,2024-01-24 10:26:24,0.0
19048,-256,2520,-191,179,-185,2024-01-24 10:26:24,0.0
18900,-340,2308,-153,197,-177,2024-01-24 10:26:24,0.0
19036,-292,2352,-184,177,-183,2024-01-24 10:26:24,0.0
19012,-344,2276,-147,188,-180,2024-01-24 10:26:24,0.0
19004,-384,2364,-147,163,-166,2024-01-24 10:26:24,0.0
18896,-256,2312,-180,165,-184,2024-01-24 10:26:24,0.0
18976,-292,2488,-170,176,-170,2024-01-24 10:26:24,0.0
18948,-360,2296,-169,160,-163,2024-01-24 10:26:24,0.0
18988,-228,2412,-146,169,-169,2024-01-24 10:26:24,0.0
19016,-324,2340,-140,165,-192,2024-01-24 10:26:24,0.0
18912,-348,2412,-180,183,-179,2024-01-24 10:26:24,0.0
18940,-232,2196,-166,166,-185,2024-01-24 10:26:24,0.0
19048,-352,2356,-153,182,-169,2024-01-24 10:26:24,0.0
19024,-236,2300,-184,181,-179,2024-01-24 10:26:24,0.0
18956,-328,2316,-163,175,-190,2024-01-24 10:26:24,0.0
19028,-260,2352,-149,178,-178,2024-01-24 10:26:24,0.0
19024,-236,2292,-154,174,-184,2024-01-24 10:26:24,0.0
18984,-304,2424,-156,183,-186,2024-01-24 10:26:24,0.0
18936,-268,2276,-168,191,-171,2024-01-24 10:26:24,0.0
18932,-300,2308,-163,193,-194,2024-01-24 10:26:24,0.0
19008,-316,2320,-160,182,-191,2024-01-24 10:26:24,0.0
18996,-296,2420,-191,190,-166,2024-01-24 10:26:24,0.0
19020,-328,2252,-168,170,-187,2024-01-24 10:26:24,0.0
18916,-372,2332,-152,162,-203,2024-01-24 10:26:24,0.0
19012,-300,2352,-185,164,-162,2024-01-24 10:26:24,0.0
19024,-192,2292,-154,167,-180,2024-01-24 10:26:24,0.0
19004,-216,2268,-173,160,-173,2024-01-24 10:26:24,0.0
19020,-172,2356,-170,175,-197,2024-01-24 10:26:24,0.0
19036,-216,2284,-177,161,-193,2024-01-24 10:26:24,0.0
18872,-272,2372,-153,205,-197,2024-01-24 10:26:24,0.0
18904,-276,2488,-153,172,-193,2024-01-24 10:26:24,0.0
19012,-288,2432,-168,166,-169,2024-01-24 10:26:24,0.0
19012,-200,2076,-160,194,-189,2024-01-24 10:26:24,0.0
18972,-256,2328,-158,193,-180,2024-01-24 10:26:24,0.0
18912,-192,2432,-181,197,-177,2024-01-24 10:26:24,0.0
18996,-216,2384,-144,184,-183,2024-01-24 10:26:24,0.0
19016,-308,2396,-155,194,-173,2024-01-24 10:26:24,0.0
18936,-308,2348,-177,168,-191,2024-01-24 10:26:24,0.0
19028,-324,2516,-163,180,-152,2024-01-24 10:26:24,0.0
18964,-196,2452,-177,196,-168,2024-01-24 10:26:24,0.0
18968,-352,2508,-165,199,-193,2024-01-24 10:26:24,0.0
18948,-332,2476,-162,171,-177,2024-01-24 10:26:24,0.0
19000,-248,2332,-146,175,-164,2024-01-24 10:26:24,0.0
18920,-264,2312,-183,189,-164,2024-01-24 10:26:25,0.0
18916,-308,2256,-157,178,-192,2024-01-24 10:26:25,0.0
18904,-268,2256,-199,162,-199,2024-01-24 10:26:25,0.0
18916,-340,2284,-167,187,-175,2024-01-24 10:26:25,0.0
18908,-268,2216,-147,153,-207,2024-01-24 10:26:25,0.0
18960,-248,2436,-173,165,-186,2024-01-24 10:26:25,0.0
18888,-384,2280,-173,192,-177,2024-01-24 10:26:25,0.0
18944,-372,2364,-151,189,-175,2024-01-24 10:26:25,0.0
18900,-248,2312,-179,174,-180,2024-01-24 10:26:25,0.0
18916,-228,2352,-169,153,-168,2024-01-24 10:26:25,0.0
18948,-296,2344,-198,157,-168,2024-01-24 10:26:25,0.0
18944,-268,2300,-171,168,-201,2024-01-24 10:26:25,0.0
18976,-276,2332,-154,173,-191,2024-01-24 10:26:25,0.0
18960,-296,2276,-134,194,-177,2024-01-24 10:26:25,0.0
19008,-312,2420,-150,170,-187,2024-01-24 10:26:25,0.0
18896,-316,2400,-172,157,-185,2024-01-24 10:26:25,0.0
19008,-336,2396,-172,175,-176,2024-01-24 10:26:25,0.0
18908,-308,2276,-192,163,-194,2024-01-24 10:26:25,0.0
19040,-376,2328,-148,185,-163,2024-01-24 10:26:25,0.0
18932,-296,2384,-146,190,-174,2024-01-24 10:26:25,0.0
18916,-316,2432,-168,146,-176,2024-01-24 10:26:25,0.0
18936,-340,2396,-170,164,-200,2024-01-24 10:26:25,0.0
18888,-272,2336,-139,186,-168,2024-01-24 10:26:25,0.0
18940,-316,2228,-166,179,-149,2024-01-24 10:26:25,0.0
19012,-284,2316,-152,186,-184,2024-01-24 10:26:25,0.0
18996,-316,2364,-182,136,-205,2024-01-24 10:26:25,0.0
18976,-292,2356,-171,195,-158,2024-01-24 10:26:25,0.0
18992,-376,2364,-161,216,-177,2024-01-24 10:26:25,0.0
18992,-400,2304,-152,171,-168,2024-01-24 10:26:25,0.0
18968,-340,2464,-162,184,-187,2024-01-24 10:26:25,0.0
19016,-264,2344,-167,170,-172,2024-01-24 10:26:25,0.0
18972,-288,2372,-175,201,-192,2024-01-24 10:26:25,0.0
19024,-228,2400,-173,209,-168,2024-01-24 10:26:25,0.0
19016,-232,2340,-145,159,-178,2024-01-24 10:26:25,0.0
18888,-148,2500,-159,175,-210,2024-01-24 10:26:25,0.0
19068,-116,2316,-174,183,-158,2024-01-24 10:26:25,0.0
19144,-152,2288,-167,190,-161,2024-01-24 10:26:25,0.0
18900,-416,2320,-171,173,-195,2024-01-24 10:26:25,0.0
19004,-400,2372,-184,188,-199,2024-01-24 10:26:25,0.0
18900,-384,2440,-169,190,-193,2024-01-24 10:26:25,0.0
18960,-348,2416,-182,204,-173,2024-01-24 10:26:25,0.0
19012,-324,2412,-145,157,-199,2024-01-24 10:26:25,0.0
19004,-364,2344,-164,179,-175,2024-01-24 10:26:25,0.0
18852,-308,2392,-170,182,-200,2024-01-24 10:26:25,0.0
19076,-216,2384,-166,193,-171,2024-01-24 10:26:25,0.0
19032,-248,2384,-154,164,-179,2024-01-24 10:26:25,0.0
18960,-348,2368,-190,178,-184,2024-01-24 10:26:25,0.0
19024,-252,2388,-174,162,-179,2024-01-24 10:26:25,0.0
18916,-376,2252,-161,184,-190,2024-01-24 10:26:25,0.0
18984,-376,2372,-176,171,-184,2024-01-24 10:26:25,0.0
18964,-436,2412,-174,184,-175,2024-01-24 10:26:25,
18996,-320,2368,-172,164,-161,2024-01-24 10:26:25,0.0
18976,-252,2508,-161,167,-175,2024-01-24 10:26:25,0.0
18976,-172,2368,-165,178,-182,2024-01-24 10:26:25,0.0
18996,-192,2332,-178,175,-176,2024-01-24 10:26:25,0.0
18948,-236,2248,-167,185,-157,2024-01-24 10:26:25,0.0
19096,-216,2252,-176,169,-172,2024-01-24 10:26:25,0.0
18952,-244,2396,-193,169,-182,2024-01-24 10:26:25,0.0
19020,-388,2408,-197,184,-193,2024-01-24 10:26:25,0.0
18940,-296,2376,-165,187,-174,2024-01-24 10:26:25,0.0
19004,-388,2408,-169,165,-162,2024-01-24 10:26:26,0.0
19000,-384,2484,-155,174,-153,2024-01-24 10:26:26,0.0
18916,-364,2364,-166,158,-185,2024-01-24 10:26:26,0.0
19028,-264,2340,-204,154,-161,2024-01-24 10:26:26,0.0
18968,-296,2364,-156,161,-187,2024-01-24 10:26:26,0.0
18988,-248,2380,-158,169,-184,2024-01-24 10:26:26,0.0
18968,-300,2464,-170,189,-179,2024-01-24 10:26:26,0.0
18848,-328,2320,-179,181,-171,2024-01-24 10:26:26,0.0
18952,-296,2308,-149,185,-193,2024-01-24 10:26:26,0.0
18936,-340,2548,-163,179,-173,2024-01-24 10:26:26,0.0
18996,-344,2344,-165,171,-183,2024-01-24 10:26:26,0.0
18932,-300,2344,-146,180,-169,2024-01-24 10:26:26,0.0
18988,-256,2492,-189,187,-179,2024-01-24 10:26:26,0.0
18908,-384,2456,-146,199,-170,2024-01-24 10:26:26,0.0
18952,-236,2272,-171,137,-207,2024-01-24 10:26:26,0.0
18984,-308,2344,-160,170,-180,2024-01-24 10:26:26,0.0
18912,-192,2272,-139,194,-178,2024-01-24 10:26:26,0.0
19016,-264,2336,-185,206,-197,2024-01-24 10:26:26,0.0
18948,-244,2476,-156,202,-184,2024-01-24 10:26:26,0.0
18980,-332,2340,-170,164,-179,2024-01-24 10:26:26,0.0
19012,-280,2340,-160,179,-180,2024-01-24 10:26:26,0.0
18936,-312,2324,-167,190,-172,2024-01-24 10:26:26,0.0
18996,-272,2404,-146,172,-159,2024-01-24 10:26:26,0.0
18988,-288,2392,-154,161,-191,2024-01-24 10:26:26,0.0
18856,-248,2392,-177,142,-162,2024-01-24 10:26:26,0.0
19072,-308,2264,-164,168,-190,2024-01-24 10:26:26,0.0
19100,-228,2444,-164,185,-178,2024-01-24 10:26:26,0.0
19004,-392,2468,-171,201,-192,2024-01-24 10:26:26,0.0
18860,-352,2444,-194,145,-186,2024-01-24 10:26:26,0.0
18988,-368,2376,-169,192,-188,2024-01-24 10:26:26,0.0
18912,-320,2408,-139,158,-167,2024-01-24 10:26:26,0.0
19068,-312,2304,-149,166,-184,2024-01-24 10:26:26,0.0
18980,-280,2388,-165,192,-184,2024-01-24 10:26:26,0.0
18940,-300,2416,-178,172,-172,2024-01-24 10:26:26,0.0
18900,-188,2424,-183,172,-169,2024-01-24 10:26:26,0.0
19004,-312,2328,-157,195,-189,2024-01-24 10:26:26,0.0
18996,-256,2360,-168,209,-173,2024-01-24 10:26:26,0.0
18888,-248,2472,-171,192,-184,2024-01-24 10:26:26,0.0
19012,-276,2432,-150,200,-178,2024-01-24 10:26:26,0.0
18936,-272,2400,-164,155,-190,2024-01-24 10:26:26,0.0
18932,-320,2344,-169,177,-174,2024-01-24 10:26:26,0.0
19080,-288,2268,-137,198,-181,2024-01-24 10:26:26,0.0
18976,-336,2308,-179,172,-172,2024-01-24 10:26:26,0.0
18972,-248,2360,-144,173,-178,2024-01-24 10:26:26,0.0
18932,-252,2472,-166,173,-190,2024-01-24 10:26:26,0.0
18940,-244,2320,-170,154,-178,2024-01-24 10:26:26,0.0
18992,-236,2348,-158,200,-180,2024-01-24 10:26:26,0.0
18936,-336,2356,-195,207,-174,2024-01-24 10:26:26,0.0
19056,-320,2264,-174,196,-165,2024-01-24 10:26:26,0.0
18976,-324,2328,-160,166,-184,2024-01-24 10:26:26,0.0
19004,-364,2364,-180,189,-187,2024-01-24 10:26:26,0.0
18900,-348,2300,-154,186,-175,2024-01-24 10:26:26,0.0
18948,-216,2316,-183,185,-202,2024-01-24 10:26:26,0.0
18940,-260,2340,-177,205,-188,2024-01-24 10:26:26,0.0
18984,-188,2380,-160,162,-177,2024-01-24 10:26:26,0.0
18936,-292,2300,-161,165,-196,2024-01-24 10:26:26,0.0
18996,-312,2232,-173,169,-182,2024-01-24 10:26:26,0.0
18940,-232,2356,-157,205,-162,2024-01-24 10:26:26,0.0
18948,-240,2256,-160,193,-183,2024-01-24 10:26:26,0.0
18968,-356,2488,-191,167,-166,2024-01-24 10:26:26,0.0
18960,-368,2244,-173,146,-186,2024-01-24 10:26:27,0.0
19004,-304,2292,-167,180,-175,2024-01-24 10:26:27,0.0
18944,-256,2292,-203,195,-161,2024-01-24 10:26:27,0.0
18940,-288,2412,-164,205,-174,2024-01-24 10:26:27,0.0
18944,-208,2468,-166,162,-167,2024-01-24 10:26:27,0.0
18960,-236,2300,-178,140,-174,2024-01-24 10:26:27,0.0
18908,-252,2316,-173,172,-197,2024-01-24 10:26:27,0.0
18908,-200,2376,-182,196,-188,2024-01-24 10:26:27,0.0
18940,-232,2384,-151,180,-164,2024-01-24 10:26:27,0.0
18904,-388,2428,-175,170,-168,2024-01-24 10:26:27,0.0
18948,-232,2416,-167,142,-182,2024-01-24 10:26:27,0.0
18872,-296,2276,-168,193,-199,2024-01-24 10:26:27,0.0
18932,-268,2408,-183,199,-174,2024-01-24 10:26:27,0.0
18920,-272,2380,-144,186,-166,2024-01-24 10:26:27,0.0
18912,-268,2392,-179,189,-180,2024-01-24 10:26:27,0.0
18876,-220,2420,-169,188,-176,2024-01-24 10:26:27,0.0
19072,-272,2288,-159,207,-169,2024-01-24 10:26:27,0.0
18888,-276,2296,-184,159,-176,2024-01-24 10:26:27,0.0
18996,-332,2396,-164,199,-198,2024-01-24 10:26:27,0.0
18952,-332,2376,-174,170,-204,2024-01-24 10:26:27,0.0
19076,-292,2372,-187,185,-180,2024-01-24 10:26:27,0.0
19036,-280,2420,-188,184,-168,2024-01-24 10:26:27,0.0
19036,-264,2336,-169,180,-197,2024-01-24 10:26:27,0.0
19028,-348,2416,-151,170,-167,2024-01-24 10:26:27,0.0
18928,-268,2396,-162,161,-185,2024-01-24 10:26:27,0.0
18932,-236,2376,-149,210,-176,2024-01-24 10:26:27,0.0
19008,-316,2480,-170,208,-168,2024-01-24 10:26:27,0.0
18948,-300,2524,-164,180,-180,2024-01-24 10:26:27,0.0
18960,-216,2304,-165,176,-160,2024-01-24 10:26:27,0.0
18960,-360,2380,-147,186,-158,2024-01-24 10:26:27,0.0
19028,-404,2312,-171,182,-174,2024-01-24 10:26:27,
18836,-228,2496,-180,185,-174,2024-01-24 10:26:27,0.0
18988,-260,2412,-186,186,-190,2024-01-24 10:26:27,0.0
18936,-320,2416,-152,184,-187,2024-01-24 10:26:27,0.0
18984,-296,2324,-158,166,-170,2024-01-24 10:26:27,0.0
18920,-320,2212,-181,188,-182,2024-01-24 10:26:27,0.0
19044,-224,2308,-154,191,-164,2024-01-24 10:26:27,0.0
18980,-260,2348,-158,192,-189,2024-01-24 10:26:27,0.0
18924,-264,2476,-177,177,-172,2024-01-24 10:26:27,0.0
19052,-272,2212,-169,187,-177,2024-01-24 10:26:27,0.0
18968,-352,2280,-142,160,-196,2024-01-24 10:26:27,0.0
19092,-328,2344,-143,196,-190,2024-01-24 10:26:27,0.0
18952,-276,2332,-189,185,-173,2024-01-24 10:26:27,0.0
18904,-212,2476,-179,194,-167,2024-01-24 10:26:27,0.0
18900,-196,2376,-175,171,-185,2024-01-24 10:26:27,0.0
18948,-208,2340,-192,171,-162,2024-01-24 10:26:27,0.0
18928,-264,2284,-144,184,-173,2024-01-24 10:26:27,0.0
18960,-264,2344,-168,201,-176,2024-01-24 10:26:27,0.0
18980,-300,2408,-184,171,-177,2024-01-24 10:26:27,0.0
18820,-244,2268,-192,181,-172,2024-01-24 10:26:27,0.0
18944,-324,2404,-177,181,-163,2024-01-24 10:26:27,0.0
19016,-384,2472,-169,131,-178,2024-01-24 10:26:27,0.0
19072,-284,2412,-160,173,-190,2024-01-24 10:26:27,0.0
18996,-228,2280,-153,176,-165,2024-01-24 10:26:27,0.0
18920,-264,2280,-164,202,-184,2024-01-24 10:26:27,0.0
18964,-324,2360,-161,149,-156,2024-01-24 10:26:27,0.0
19052,-196,2340,-127,151,-176,2024-01-24 10:26:27,0.0
18920,-164,2384,-173,177,-185,2024-01-24 10:26:27,0.0
18948,-340,2252,-183,168,-184,2024-01-24 10:26:27,0.0
18944,-352,2372,-194,184,-187,2024-01-24 10:26:27,0.0
19028,-320,2236,-168,192,-184,2024-01-24 10:26:28,0.0
18984,-248,2272,-170,163,-182,2024-01-24 10:26:28,0.0
18992,-292,2408,-199,157,-176,2024-01-24 10:26:28,0.0
18948,-252,2392,-171,185,-186,2024-01-24 10:26:28,0.0
19052,-268,2216,-173,197,-169,2024-01-24 10:26:28,0.0
18976,-320,2396,-175,195,-160,2024-01-24 10:26:28,0.0
18976,-252,2472,-168,173,-195,2024-01-24 10:26:28,0.0
18980,-320,2320,-177,180,-174,2024-01-24 10:26:28,0.0
18940,-300,2352,-173,171,-168,2024-01-24 10:26:28,0.0
18900,-276,2320,-188,170,-187,2024-01-24 10:26:28,0.0
18844,-292,2396,-150,164,-180,2024-01-24 10:26:28,0.0
18920,-316,2292,-190,194,-160,2024-01-24 10:26:28,0.0
18908,-272,2400,-185,164,-162,2024-01-24 10:26:28,0.0
18916,-356,2432,-203,180,-184,2024-01-24 10:26:28,0.0
18852,-388,2300,-165,173,-186,2024-01-24 10:26:28,0.0
18904,-240,2348,-166,153,-181,2024-01-24 10:26:28,0.0
19016,-272,2448,-163,175,-151,2024-01-24 10:26:28,0.0
18996,-332,2404,-173,183,-167,2024-01-24 10:26:28,0.0
18916,-320,2368,-177,191,-172,2024-01-24 10:26:28,0.0
18876,-288,2404,-170,195,-199,2024-01-24 10:26:28,0.0
18888,-312,2332,-177,181,-168,2024-01-24 10:26:28,0.0
18936,-268,2368,-173,152,-189,2024-01-24 10:26:28,0.0
18960,-240,2376,-170,164,-155,2024-01-24 10:26:28,0.0
18916,-196,2312,-175,167,-198,2024-01-24 10:26:28,0.0
18968,-256,2432,-142,170,-193,2024-01-24 10:26:28,0.0
18940,-244,2472,-151,194,-163,2024-01-24 10:26:28,0.0
19004,-280,2432,-198,215,-182,2024-01-24 10:26:28,0.0
18948,-324,2376,-165,168,-180,2024-01-24 10:26:28,0.0
18956,-296,2356,-159,142,-182,2024-01-24 10:26:28,0.0
18876,-172,2356,-120,193,-185,2024-01-24 10:26:28,0.0
18936,-296,2284,-163,163,-194,2024-01-24 10:26:28,0.0
19004,-316,2300,-182,197,-155,2024-01-24 10:26:28,0.0
18976,-276,2352,-166,192,-172,2024-01-24 10:26:28,0.0
19048,-216,2396,-157,152,-203,2024-01-24 10:26:28,0.0
18880,-276,2484,-177,170,-157,2024-01-24 10:26:28,0.0
18904,-292,2232,-161,190,-181,2024-01-24 10:26:28,0.0
19020,-236,2300,-170,177,-161,2024-01-24 10:26:28,0.0
18984,-240,2440,-149,192,-185,2024-01-24 10:26:28,0.0
19004,-260,2228,-146,194,-171,2024-01-24 10:26:28,0.0
18996,-232,2460,-161,156,-180,2024-01-24 10:26:28,0.0
18904,-296,2540,-179,174,-179,2024-01-24 10:26:28,0.0
18944,-228,2372,-162,185,-196,2024-01-24 10:26:28,0.0
19060,-152,2452,-183,178,-182,2024-01-24 10:26:28,0.0
18968,-360,2356,-167,202,-158,2024-01-24 10:26:28,0.0
18984,-180,2372,-168,186,-170,2024-01-24 10:26:28,0.0
18900,-336,2272,-174,185,-186,2024-01-24 10:26:28,0.0
18916,-272,2416,-160,187,-169,2024-01-24 10:26:28,0.0
18968,-320,2360,-183,193,-183,2024-01-24 10:26:28,0.0
18944,-288,2312,-171,189,-171,2024-01-24 10:26:28,0.0
19000,-268,2372,-176,177,-170,2024-01-24 10:26:28,0.0
18912,-280,2388,-167,149,-191,2024-01-24 10:26:28,0.0
18960,-200,2228,-180,169,-171,2024-01-24 10:26:28,0.0
18948,-252,2412,-181,160,-194,2024-01-24 10:26:28,0.0
19036,-280,2184,-179,181,-189,2024-01-24 10:26:28,0.0
19040,-160,2408,-159,189,-177,2024-01-24 10:26:28,0.0
19028,-296,2368,-182,185,-175,2024-01-24 10:26:28,0.0
19064,-328,2408,-158,140,-191,2024-01-24 10:26:28,0.0
18944,-256,2320,-164,173,-190,2024-01-24 10:26:28,0.0
18944,-316,2440,-152,173,-178,2024-01-24 10:26:28,0.0
18972,-220,2272,-156,167,-173,2024-01-24 10:26:28,0.0
18968,-216,2452,-160,181,-170,2024-01-24 10:26:29,0.0
18828,-300,2416,-175,157,-179,2024-01-24 10:26:29,0.0
18932,-304,2396,-168,167,-185,2024-01-24 10:26:29,0.0
19016,-264,2376,-166,163,-191,2024-01-24 10:26:29,0.0
19040,-208,2384,-177,207,-207,2024-01-24 10:26:29,0.0
18888,-252,2448,-180,181,-171,2024-01-24 10:26:29,0.0
18932,-264,2420,-141,170,-189,2024-01-24 10:26:29,0.0
18944,-344,2308,-169,174,-155,2024-01-24 10:26:29,0.0
19148,-276,2300,-172,199,-169,2024-01-24 10:26:29,0.0
18992,-316,2464,-177,173,-168,2024-01-24 10:26:29,0.0
18856,-196,2400,-173,155,-191,2024-01-24 10:26:29,
18888,-324,2376,-150,197,-167,2024-01-24 10:26:29,0.0
18956,-304,2280,-187,180,-179,2024-01-24 10:26:29,0.0
19032,-272,2396,-143,167,-181,2024-01-24 10:26:29,0.0
18992,-188,2380,-128,172,-178,2024-01-24 10:26:29,0.0
19016,-324,2404,-184,184,-193,2024-01-24 10:26:29,0.0
19008,-296,2304,-191,180,-188,2024-01-24 10:26:29,0.0
19028,-296,2324,-180,190,-196,2024-01-24 10:26:29,0.0
19008,-296,2352,-191,186,-179,2024-01-24 10:26:29,0.0
18980,-284,2184,-136,190,-182,2024-01-24 10:26:29,0.0
19016,-244,2308,-184,161,-205,2024-01-24 10:26:29,0.0
18992,-324,2320,-164,190,-188,2024-01-24 10:26:29,0.0
19016,-264,2408,-181,181,-191,2024-01-24 10:26:29,0.0
18916,-384,2308,-176,194,-181,2024-01-24 10:26:29,0.0
18892,-328,2316,-185,188,-188,2024-01-24 10:26:29,0.0
18996,-332,2528,-182,188,-187,2024-01-24 10:26:29,0.0
18984,-384,2200,-189,167,-200,2024-01-24 10:26:29,0.0
18968,-260,2432,-161,166,-158,2024-01-24 10:26:29,0.0
18960,-348,2252,-150,157,-193,2024-01-24 10:26:29,0.0
19048,-276,2336,-179,177,-172,2024-01-24 10:26:29,0.0
18920,-284,2432,-179,192,-186,2024-01-24 10:26:29,0.0
19048,-240,2380,-194,169,-177,2024-01-24 10:26:29,0.0
18944,-236,2436,-167,202,-177,2024-01-24 10:26:29,0.0
18956,-320,2508,-182,149,-188,2024-01-24 10:26:29,0.0
18944,-304,2264,-178,184,-171,2024-01-24 10:26:29,0.0
18944,-320,2380,-166,171,-161,2024-01-24 10:26:29,0.0
18892,-312,2356,-159,170,-175,2024-01-24 10:26:29,0.0
18984,-256,2424,-158,168,-185,2024-01-24 10:26:29,0.0
18976,-284,2348,-154,147,-159,2024-01-24 10:26:29,0.0
18876,-244,2236,-153,146,-196,2024-01-24 10:26:29,0.0
18956,-264,2280,-162,174,-167,2024-01-24 10:26:29,0.0
18972,-336,2272,-159,199,-163,2024-01-24 10:26:29,0.0
18940,-280,2352,-189,168,-190,2024-01-24 10:26:29,0.0
18956,-256,2416,-165,189,-184,2024-01-24 10:26:29,0.0
18956,-288,2332,-153,180,-197,2024-01-24 10:26:29,0.0
18912,-276,2392,-186,204,-197,2024-01-24 10:26:29,0.0
18992,-264,2260,-181,169,-185,2024-01-24 10:26:29,0.0
18968,-356,2256,-166,208,-178,2024-01-24 10:26:29,0.0
19120,-316,2428,-164,162,-215,2024-01-24 10:26:29,0.0
18908,-252,2268,-168,141,-180,2024-01-24 10:26:29,0.0
18932,-252,2324,-155,168,-174,2024-01-24 10:26:29,0.0
18908,-368,2316,-188,155,-156,2024-01-24 10:26:29,0.0
18992,-276,2352,-173,176,-161,2024-01-24 10:26:29,0.0
18984,-264,2324,-165,178,-184,2024-01-24 10:26:29,0.0
19044,-192,2312,-166,202,-180,2024-01-24 10:26:29,0.0
18944,-316,2316,-169,200,-178,2024-01-24 10:26:29,0.0
18988,-328,2344,-171,194,-193,2024-01-24 10:26:29,0.0
19072,-276,2408,-164,189,-179,2024-01-24 10:26:29,0.0
19000,-264,2336,-176,189,-179,2024-01-24 10:26:29,0.0
18972,-276,2332,-161,183,-166,2024-01-24 10:26:30,0.0
19012,-312,2256,-151,153,-194,2024-01-24 10:26:30,0.0
18944,-196,2216,-146,177,-179,2024-01-24 10:26:30,0.0
18972,-320,2192,-162,187,-167,2024-01-24 10:26:30,0.0
18928,-352,2340,-155,214,-170,2024-01-24 10:26:30,0.0
19036,-328,2300,-159,175,-204,2024-01-24 10:26:30,0.0
19064,-232,2404,-168,153,-186,2024-01-24 10:26:30,0.0
18792,-344,2544,-158,171,-166,2024-01-24 10:26:30,0.0
19104,-328,2280,-144,180,-188,2024-01-24 10:26:30,0.0
18956,-360,2384,-184,158,-194,2024-01-24 10:26:30,0.0
18920,-152,2364,-158,193,-174,2024-01-24 10:26:30,0.0
18964,-308,2472,-155,171,-186,2024-01-24 10:26:30,0.0
18944,-288,2212,-169,186,-164,2024-01-24 10:26:30,0.0
18936,-268,2332,-158,180,-184,2024-01-24 10:26:30,0.0
18980,-312,2484,-153,219,-164,2024-01-24 10:26:30,0.0
18992,-136,2336,-163,165,-184,2024-01-24 10:26:30,0.0
18904,-280,2476,-183,197,-191,2024-01-24 10:26:30,0.0
18988,-208,2428,-164,188,-184,2024-01-24 10:26:30,0.0
18920,-328,2376,-154,179,-159,2024-01-24 10:26:30,0.0
18944,-248,2528,-183,192,-203,2024-01-24 10:26:30,0.0
18968,-284,2276,-158,190,-158,2024-01-24 10:26:30,0.0
18924,-268,2456,-184,177,-184,2024-01-24 10:26:30,0.0
19008,-284,2316,-178,197,-185,2024-01-24 10:26:30,0.0
18948,-224,2312,-182,167,-207,2024-01-24 10:26:30,0.0
18940,-308,2332,-175,181,-197,2024-01-24 10:26:30,0.0
19008,-324,2504,-190,197,-176,2024-01-24 10:26:30,0.0
18956,-296,2360,-150,177,-193,2024-01-24 10:26:30,0.0
18964,-236,2424,-173,171,-189,2024-01-24 10:26:30,0.0
18888,-332,2440,-184,147,-197,2024-01-24 10:26:30,0.0
18956,-340,2352,-151,182,-170,2024-01-24 10:26:30,0.0
18928,-332,2316,-153,198,-150,2024-01-24 10:26:30,0.0
18944,-288,2348,-179,170,-177,2024-01-24 10:26:30,0.0
19056,-288,2392,-170,169,-175,2024-01-24 10:26:30,0.0
18928,-280,2476,-170,165,-175,2024-01-24 10:26:30,0.0
19008,-304,2320,-170,171,-194,2024-01-24 10:26:30,0.0
18840,-256,2356,-173,182,-163,2024-01-24 10:26:30,0.0
18824,-304,2288,-155,169,-183,2024-01-24 10:26:30,0.0
18984,-344,2352,-183,182,-184,2024-01-24 10:26:30,0.0
18980,-320,2504,-149,172,-166,2024-01-24 10:26:30,0.0
19004,-344,2416,-174,168,-167,2024-01-24 10:26:30,0.0
18940,-260,2380,-174,188,-187,2024-01-24 10:26:30,0.0
19012,-412,2272,-177,182,-180,2024-01-24 10:26:30,0.0
18932,-240,2472,-169,149,-166,2024-01-24 10:26:30,0.0
19024,-380,2312,-168,168,-183,2024-01-24 10:26:30,0.0
18900,-284,2300,-162,163,-201,2024-01-24 10:26:30,0.0
18912,-276,2312,-162,179,-194,2024-01-24 10:26:30,0.0
18988,-332,2280,-184,177,-169,2024-01-24 10:26:30,0.0
18984,-228,2424,-160,176,-176,2024-01-24 10:26:30,0.0
18928,-244,2484,-165,195,-194,2024-01-24 10:26:30,0.0
19012,-284,2228,-150,221,-182,2024-01-24 10:26:30,0.0
19076,-320,2360,-132,155,-181,2024-01-24 10:26:30,0.0
18980,-372,2284,-186,175,-186,2024-01-24 10:26:30,
18916,-300,2328,-159,144,-182,2024-01-24 10:26:30,0.0
18972,-276,2344,-158,176,-186,2024-01-24 10:26:30,0.0
18992,-284,2388,-175,212,-174,2024-01-24 10:26:30,0.0
18916,-260,2388,-141,160,-169,2024-01-24 10:26:30,0.0
19016,-220,2372,-164,183,-183,2024-01-24 10:26:30,0.0
18856,-376,2320,-171,187,-173,2024-01-24 10:26:30,0.0
18988,-236,2436,-162,170,-181,2024-01-24 10:26:30,0.0
18964,-200,2600,-166,165,-187,2024-01-24 10:26:30,0.0
18892,-260,2316,-127,175,-161,2024-01-24 10:26:31,0.0
18888,-168,2368,-166,172,-209,2024-01-24 10:26:31,0.0
18920,-340,2440,-155,183,-181,2024-01-24 10:26:31,0.0
19004,-292,2444,-155,179,-168,2024-01-24 10:26:31,0.0
18924,-364,2596,-152,194,-176,2024-01-24 10:26:31,0.0
18936,-208,2508,-180,144,-180,2024-01-24 10:26:31,0.0
18880,-292,2280,-167,186,-186,2024-01-24 10:26:31,0.0
18872,-368,2252,-188,190,-178,2024-01-24 10:26:31,0.0
19028,-308,2392,-186,204,-182,2024-01-24 10:26:31,0.0
18956,-320,2404,-170,148,-188,2024-01-24 10:26:31,0.0
19020,-276,2416,-167,199,-182,2024-01-24 10:26:31,0.0
18952,-256,2388,-186,180,-192,2024-01-24 10:26:31,0.0
18920,-300,2288,-146,184,-181,2024-01-24 10:26:31,0.0
18936,-252,2440,-151,167,-170,2024-01-24 10:26:31,0.0
19048,-260,2356,-189,182,-175,2024-01-24 10:26:31,0.0
19004,-216,2384,-176,175,-204,2024-01-24 10:26:31,0.0
19028,-232,2432,-171,176,-173,2024-01-24 10:26:31,0.0
19004,-376,2344,-157,176,-176,2024-01-24 10:26:31,0.0
18828,-348,2356,-169,164,-173,2024-01-24 10:26:31,0.0
18988,-272,2360,-189,193,-175,2024-01-24 10:26:31,0.0
18936,-328,2292,-139,167,-218,2024-01-24 10:26:31,0.0
18960,-260,2400,-173,175,-179,2024-01-24 10:26:31,0.0
18936,-300,2344,-162,170,-195,2024-01-24 10:26:31,0.0
18952,-336,2376,-198,175,-171,2024-01-24 10:26:31,0.0
18936,-252,2320,-178,141,-161,2024-01-24 10:26:31,0.0
18900,-320,2432,-155,187,-173,2024-01-24 10:26:31,0.0
18968,-292,2340,-204,178,-196,2024-01-24 10:26:31,0.0
18988,-344,2456,-163,162,-215,2024-01-24 10:26:31,0.0
18888,-276,2396,-159,165,-171,2024-01-24 10:26:31,0.0
18948,-228,2468,-194,183,-165,2024-01-24 10:26:31,0.0
18872,-200,2556,-154,187,-180,2024-01-24 10:26:31,0.0
18896,-268,2404,-155,178,-160,2024-01-24 10:26:31,0.0
19020,-316,2400,-159,177,-195,2024-01-24 10:26:31,0.0
18864,-320,2360,-153,177,-178,2024-01-24 10:26:31,0.0
18964,-344,2268,-157,185,-174,2024-01-24 10:26:31,0.0
18996,-296,2420,-174,179,-182,2024-01-24 10:26:31,0.0
18976,-292,2384,-138,185,-173,2024-01-24 10:26:31,0.0
18904,-356,2356,-138,170,-198,2024-01-24 10:26:31,0.0
18900,-260,2420,-175,176,-183,2024-01-24 10:26:31,0.0
18956,-272,2276,-147,166,-167,2024-01-24 10:26:31,0.0
18980,-304,2272,-178,209,-202,2024-01-24 10:26:31,0.0
18948,-284,2532,-182,175,-168,2024-01-24 10:26:31,0.0
18876,-296,2364,-163,174,-194,2024-01-24 10:26:31,0.0
18872,-256,2280,-139,169,-164,2024-01-24 10:26:31,0.0
18956,-320,2136,-162,163,-170,2024-01-24 10:26:31,0.0
18976,-284,2368,-161,195,-167,2024-01-24 10:26:31,0.0
18900,-356,2372,-150,160,-172,2024-01-24 10:26:31,0.0
18896,-252,2280,-157,186,-166,2024-01-24 10:26:31,0.0
18924,-292,2324,-169,186,-188,2024-01-24 10:26:31,0.0
18944,-400,2352,-189,156,-176,2024-01-24 10:26:31,0.0
18924,-268,2224,-145,185,-161,2024-01-24 10:26:31,0.0
18888,-384,2416,-147,175,-179,2024-01-24 10:26:31,0.0
19028,-248,2424,-172,175,-170,2024-01-24 10:26:31,0.0
18932,-324,2336,-161,174,-191,2024-01-24 10:26:31,0.0
18908,-208,2332,-164,178,-177,2024-01-24 10:26:31,0.0
18948,-224,2356,-157,149,-207,2024-01-24 10:26:31,0.0
18960,-248,2292,-169,162,-170,2024-01-24 10:26:31,0.0
18964,-300,2324,-172,186,-187,2024-01-24 10:26:31,0.0
19020,-312,2472,-149,182,-177,2024-01-24 10:26:31,0.0
18960,-308,2252,-149,168,-184,2024-01-24 10:26:32,0.0
18972,-324,2452,-135,152,-187,2024-01-24 10:26:32,0.0
18972,-296,2332,-181,175,-173,2024-01-24 10:26:32,0.0
18996,-268,2328,-175,172,-161,2024-01-24 10:26:32,0.0
19052,-284,2256,-186,181,-143,2024-01-24 10:26:32,0.0
19012,-180,2276,-176,208,-181,2024-01-24 10:26:32,0.0
18964,-276,2316,-186,168,-186,2024-01-24 10:26:32,0.0
18992,-220,2372,-181,207,-189,2024-01-24 10:26:32,0.0
19032,-284,2356,-156,201,-162,2024-01-24 10:26:32,0.0
18968,-332,2280,-172,188,-163,2024-01-24 10:26:32,0.0
18948,-268,2368,-141,159,-169,2024-01-24 10:26:32,0.0
18892,-372,2416,-163,137,-180,2024-01-24 10:26:32,0.0
19012,-304,2508,-168,190,-155,2024-01-24 10:26:32,0.0
18872,-404,2360,-191,159,-203,2024-01-24 10:26:32,0.0
18864,-324,2448,-150,173,-188,2024-01-24 10:26:32,0.0
18956,-328,2464,-160,165,-192,2024-01-24 10:26:32,0.0
18968,-244,2324,-175,170,-183,2024-01-24 10:26:32,0.0
18944,-232,2304,-171,186,-172,2024-01-24 10:26:32,0.0
18924,-268,2396,-159,128,-174,2024-01-24 10:26:32,0.0
18908,-248,2448,-183,177,-198,2024-01-24 10:26:32,0.0
19004,-332,2480,-163,150,-162,2024-01-24 10:26:32,0.0
19028,-260,2220,-165,154,-174,2024-01-24 10:26:32,0.0
18976,-260,2320,-155,169,-198,2024-01-24 10:26:32,0.0
18952,-264,2320,-195,193,-172,2024-01-24 10:26:32,0.0
18816,-228,2340,-176,157,-155,2024-01-24 10:26:32,0.0
18848,-252,2444,-168,168,-186,2024-01-24 10:26:32,0.0
18924,-320,2344,-157,194,-175,2024-01-24 10:26:32,0.0
18944,-244,2464,-157,198,-162,2024-01-24 10:26:32,0.0
18980,-336,2356,-173,186,-199,2024-01-24 10:26:32,0.0
18996,-244,2304,-165,147,-194,2024-01-24 10:26:32,0.0
18960,-168,2240,-173,200,-179,2024-01-24 10:26:32,0.0
18936,-380,2456,-143,208,-199,2024-01-24 10:26:32,0.0
18976,-316,2416,-175,190,-178,2024-01-24 10:26:32,
18912,-288,2288,-159,178,-178,2024-01-24 10:26:32,0.0
18880,-328,2332,-136,171,-195,2024-01-24 10:26:32,0.0
18976,-260,2388,-192,199,-157,2024-01-24 10:26:32,0.0
19028,-280,2408,-162,181,-155,2024-01-24 10:26:32,0.0
18952,-312,2400,-147,171,-175,2024-01-24 10:26:32,0.0
18996,-328,2460,-170,180,-191,2024-01-24 10:26:32,0.0
18904,-200,2224,-132,183,-189,2024-01-24 10:26:32,0.0
18976,-224,2364,-165,186,-195,2024-01-24 10:26:32,0.0
18916,-292,2404,-170,186,-182,2024-01-24 10:26:32,0.0
18940,-328,2228,-174,155,-181,2024-01-24 10:26:32,0.0
19004,-324,2392,-170,194,-179,2024-01-24 10:26:32,0.0
19060,-276,2288,-161,159,-177,2024-01-24 10:26:32,0.0
18984,-232,2412,-176,164,-189,2024-01-24 10:26:32,0.0
19008,-348,2384,-151,180,-197,2024-01-24 10:26:32,0.0
19016,-316,2332,-160,165,-163,2024-01-24 10:26:32,0.0
18972,-188,2420,-193,183,-221,2024-01-24 10:26:32,0.0
18952,-240,2504,-166,201,-168,2024-01-24 10:26:32,0.0
18964,-196,2392,-186,184,-173,2024-01-24 10:26:32,0.0
18960,-256,2452,-176,196,-171,2024-01-24 10:26:32,0.0
18928,-308,2320,-169,187,-169,2024-01-24 10:26:32,0.0
18940,-352,2388,-170,158,-166,2024-01-24 10:26:32,0.0
18920,-308,2244,-168,168,-180,2024-01-24 10:26:32,0.0
18992,-232,2364,-183,162,-163,2024-01-24 10:26:32,0.0
18988,-352,2468,-187,192,-179,2024-01-24 10:26:32,0.0
19012,-272,2372,-176,174,-169,2024-01-24 10:26:32,0.0
18948,-176,2444,-182,159,-171,2024-01-24 10:26:32,0.0
18932,-272,2388,-148,207,-170,2024-01-24 10:26:32,0.0
18940,-264,2304,-175,191,-192,2024-01-24 10:26:33,0.0
19072,-152,2312,-174,172,-204,2024-01-24 10:26:33,0.0
18976,-256,2324,-159,158,-172,2024-01-24 10:26:33,0.0
18916,-312,2328,-162,163,-200,2024-01-24 10:26:33,0.0
18984,-296,2316,-173,171,-194,2024-01-24 10:26:33,0.0
19016,-392,2240,-171,192,-182,2024-01-24 10:26:33,0.0
19072,-352,2304,-181,181,-178,2024-01-24 10:26:33,0.0
19016,-220,2312,-173,177,-178,2024-01-24 10:26:33,0.0
18956,-248,2344,-195,177,-163,2024-01-24 10:26:33,0.0
18976,-192,2288,-160,193,-157,2024-01-24 10:26:33,0.0
18996,-192,2452,-172,178,-176,2024-01-24 10:26:33,0.0
18964,-196,2356,-178,188,-189,2024-01-24 10:26:33,0.0
18996,-304,2352,-152,179,-187,2024-01-24 10:26:33,0.0
18916,-320,2360,-165,166,-174,2024-01-24 10:26:33,0.0
19024,-312,2408,-173,190,-201,2024-01-24 10:26:33,0.0
18952,-248,2288,-168,172,-174,2024-01-24 10:26:33,0.0
18964,-368,2464,-156,171,-177,2024-01-24 10:26:33,0.0
18984,-296,2304,-166,179,-180,2024-01-24 10:26:33,0.0
19016,-224,2364,-171,174,-183,2024-01-24 10:26:33,0.0
18920,-276,2492,-167,155,-173,2024-01-24 10:26:33,0.0
18892,-216,2420,-154,176,-173,2024-01-24 10:26:33,0.0
18960,-252,2536,-167,183,-183,2024-01-24 10:26:33,0.0
18864,-260,2228,-168,191,-192,2024-01-24 10:26:33,0.0
18976,-316,2332,-182,195,-162,2024-01-24 10:26:33,0.0
18964,-332,2452,-187,168,-206,2024-01-24 10:26:33,0.0
19004,-296,2384,-167,172,-179,2024-01-24 10:26:33,0.0
18940,-296,2288,-157,177,-198,2024-01-24 10:26:33,0.0
18960,-348,2340,-191,188,-166,2024-01-24 10:26:33,0.0
19000,-212,2428,-172,184,-188,2024-01-24 10:26:33,0.0
18988,-336,2384,-193,198,-176,2024-01-24 10:26:33,0.0
19024,-216,2340,-155,178,-187,2024-01-24 10:26:33,0.0
18912,-276,2344,-171,152,-192,2024-01-24 10:26:33,0.0
19012,-344,2452,-177,176,-158,2024-01-24 10:26:33,0.0
18964,-324,2448,-150,202,-161,2024-01-24 10:26:33,0.0
18872,-352,2300,-164,200,-165,2024-01-24 10:26:33,0.0
18864,-272,2504,-164,191,-185,2024-01-24 10:26:33,0.0
18960,-240,2420,-167,166,-175,2024-01-24 10:26:33,0.0
19100,-296,2360,-174,197,-172,2024-01-24 10:26:33,0.0
18960,-304,2424,-164,179,-165,2024-01-24 10:26:33,0.0
18944,-272,2276,-156,201,-155,2024-01-24 10:26:33,0.0
19072,-236,2412,-181,163,-185,2024-01-24 10:26:33,0.0
18888,-252,2436,-180,187,-193,2024-01-24 10:26:33,0.0
18856,-248,2520,-149,170,-169,2024-01-24 10:26:33,0.0
19060,-320,2220,-146,196,-186,2024-01-24 10:26:33,0.0
18884,-260,2308,-195,170,-185,2024-01-24 10:26:33,0.0
18944,-348,2356,-175,182,-183,2024-01-24 10:26:33,0.0
18888,-280,2316,-180,163,-172,2024-01-24 10:26:33,0.0
19024,-328,2320,-156,164,-173,2024-01-24 10:26:33,0.0
18940,-272,2256,-194,167,-165,2024-01-24 10:26:33,0.0
18904,-276,2344,-166,161,-182,2024-01-24 10:26:33,0.0
18904,-260,2224,-157,208,-212,2024-01-24 10:26:33,0.0
19004,-328,2428,-174,203,-169,2024-01-24 10:26:33,0.0
18984,-324,2384,-181,178,-176,2024-01-24 10:26:33,0.0
18952,-264,2388,-162,172,-164,2024-01-24 10:26:33,0.0
19064,-332,2384,-161,169,-171,2024-01-24 10:26:33,0.0
18944,-308,2376,-169,216,-188,2024-01-24 10:26:33,0.0
18952,-336,2420,-158,184,-169,2024-01-24 10:26:33,0.0
18880,-240,2356,-181,191,-187,2024-01-24 10:26:33,0.0
18852,-184,2356,-162,182,-145,2024-01-24 10:26:33,0.0
18956,-180,2280,-143,179,-198,2024-01-24 10:26:33,0.0
18900,-236,2188,-170,197,-164,2024-01-24 10:26:34,0.0
18996,-256,2320,-148,203,-159,2024-01-24 10:26:34,0.0
19040,-256,2500,-165,167,-172,2024-01-24 10:26:34,0.0
18980,-284,2504,-174,182,-169,2024-01-24 10:26:34,0.0
19028,-340,2328,-211,171,-177,2024-01-24 10:26:34,0.0
18960,-284,2228,-158,187,-164,2024-01-24 10:26:34,0.0
18956,-356,2276,-147,185,-171,2024-01-24 10:26:34,0.0
18908,-288,2200,-161,167,-199,2024-01-24 10:26:34,0.0
19028,-300,2432,-153,186,-182,2024-01-24 10:26:34,0.0
18952,-296,2348,-150,161,-178,2024-01-24 10:26:34,0.0
18968,-348,2308,-196,161,-166,2024-01-24 10:26:34,0.0
18992,-256,2352,-184,173,-176,2024-01-24 10:26:34,0.0
18972,-248,2244,-190,159,-190,2024-01-24 10:26:34,
19024,-236,2368,-170,194,-162,2024-01-24 10:26:34,0.0
18884,-256,2488,-177,183,-176,2024-01-24 10:26:34,0.0
18980,-388,2252,-145,148,-182,2024-01-24 10:26:34,0.0
18836,-300,2320,-168,189,-169,2024-01-24 10:26:34,0.0
19024,-376,2424,-188,155,-171,2024-01-24 10:26:34,0.0
19032,-288,2376,-154,160,-185,2024-01-24 10:26:34,0.0
18952,-292,2404,-156,168,-193,2024-01-24 10:26:34,0.0
19072,-268,2488,-173,164,-188,2024-01-24 10:26:34,0.0
18940,-320,2348,-161,168,-195,2024-01-24 10:26:34,0.0
18988,-196,2488,-168,195,-187,2024-01-24 10:26:34,0.0
19036,-208,2388,-165,191,-188,2024-01-24 10:26:34,0.0
19068,-364,2396,-175,179,-189,2024-01-24 10:26:34,0.0
18948,-356,2412,-184,175,-186,2024-01-24 10:26:34,0.0
19028,-464,2240,-159,171,-172,2024-01-24 10:26:34,0.0
18912,-304,2268,-189,169,-181,2024-01-24 10:26:34,0.0
18984,-280,2376,-184,199,-187,2024-01-24 10:26:34,0.0
18956,-340,2424,-172,190,-186,2024-01-24 10:26:34,0.0
18968,-232,2364,-195,162,-174,2024-01-24 10:26:34,0.0
18948,-328,2376,-178,188,-179,2024-01-24 10:26:34,0.0
18936,-336,2404,-177,180,-183,2024-01-24 10:26:34,0.0
19004,-332,2372,-176,196,-177,2024-01-24 10:26:34,0.0
18864,-404,2284,-202,184,-192,2024-01-24 10:26:34,0.0
19004,-284,2404,-161,181,-172,2024-01-24 10:26:34,0.0
19064,-300,2508,-166,176,-162,2024-01-24 10:26:34,0.0
18936,-344,2124,-180,147,-191,2024-01-24 10:26:34,0.0
18968,-312,2252,-154,186,-164,2024-01-24 10:26:34,0.0
18944,-300,2272,-176,163,-179,2024-01-24 10:26:34,0.0
19004,-168,2396,-190,204,-167,2024-01-24 10:26:34,0.0
18876,-168,2372,-171,203,-180,2024-01-24 10:26:34,0.0
19012,-232,2424,-168,186,-175,2024-01-24 10:26:34,0.0
18948,-316,2464,-178,118,-182,2024-01-24 10:26:34,0.0
18772,-360,2276,-163,181,-167,2024-01-24 10:26:34,0.0
18984,-184,2292,-171,192,-168,2024-01-24 10:26:34,0.0
18948,-348,2268,-152,200,-178,2024-01-24 10:26:34,0.0
18948,-352,2432,-167,162,-180,2024-01-24 10:26:34,0.0
18940,-296,2352,-156,195,-176,2024-01-24 10:26:34,0.0
18964,-284,2236,-156,169,-173,2024-01-24 10:26:34,0.0
18924,-348,2380,-166,174,-196,2024-01-24 10:26:34,0.0
19000,-268,2356,-177,198,-182,2024-01-24 10:26:34,0.0
19064,-284,2352,-176,173,-188,2024-01-24 10:26:34,0.0
19020,-276,2576,-185,204,-180,2024-01-24 10:26:34,0.0
19012,-240,2292,-161,172,-184,2024-01-24 10:26:34,0.0
18968,-340,2372,-187,179,-175,2024-01-24 10:26:34,0.0
18968,-260,2260,-175,161,-181,2024-01-24 10:26:34,0.0
18976,-320,2264,-191,184,-171,2024-01-24 10:26:34,0.0
18956,-228,2456,-162,159,-167,2024-01-24 10:26:34,0.0
18936,-284,2464,-179,172,-176,2024-01-24 10:26:34,0.0
19016,-280,2388,-174,166,-172,2024-01-24 10:26:35,0.0
18940,-196,2392,-177,196,-204,2024-01-24 10:26:35,0.0
18920,-284,2208,-156,167,-184,2024-01-24 10:26:35,0.0
18968,-280,2296,-198,168,-167,2024-01-24 10:26:35,0.0
19016,-324,2348,-168,189,-176,2024-01-24 10:26:35,0.0
18956,-308,2392,-164,166,-186,2024-01-24 10:26:35,0.0
18956,-260,2352,-160,176,-177,2024-01-24 10:26:35,0.0
18940,-256,2348,-157,189,-178,2024-01-24 10:26:35,0.0
18940,-352,2236,-170,171,-175,2024-01-24 10:26:35,0.0
19004,-240,2372,-172,163,-194,2024-01-24 10:26:35,0.0
18992,-264,2368,-147,189,-197,2024-01-24 10:26:35,0.0
18932,-304,2444,-178,162,-178,2024-01-24 10:26:35,0.0
18992,-372,2324,-181,181,-198,2024-01-24 10:26:35,0.0
18972,-340,2312,-132,198,-157,2024-01-24 10:26:35,0.0
18948,-212,2468,-176,186,-170,2024-01-24 10:26:35,0.0
19016,-332,2324,-159,172,-175,2024-01-24 10:26:35,0.0
19012,-184,2348,-181,175,-204,2024-01-24 10:26:35,0.0
18896,-332,2292,-175,205,-183,2024-01-24 10:26:35,0.0
18976,-280,2364,-160,168,-175,2024-01-24 10:26:35,0.0
19028,-280,2188,-179,184,-188,2024-01-24 10:26:35,0.0
18968,-324,2288,-173,172,-193,2024-01-24 10:26:35,0.0
18924,-348,2256,-174,176,-187,2024-01-24 10:26:35,0.0
18896,-284,2336,-194,163,-165,2024-01-24 10:26:35,0.0
18968,-300,2384,-149,181,-199,2024-01-24 10:26:35,0.0
18968,-280,2376,-143,177,-174,2024-01-24 10:26:35,0.0
19008,-340,2336,-180,156,-176,2024-01-24 10:26:35,0.0
18848,-212,2400,-176,164,-183,2024-01-24 10:26:35,0.0
18880,-372,2312,-177,180,-164,2024-01-24 10:26:35,0.0
19004,-252,2312,-157,173,-179,2024-01-24 10:26:35,0.0
18996,-300,2288,-164,207,-165,2024-01-24 10:26:35,0.0
18992,-356,2404,-156,181,-155,2024-01-24 10:26:35,0.0
19024,-328,2364,-179,153,-205,2024-01-24 10:26:35,0.0
19012,-96,2212,-203,180,-167,2024-01-24 10:26:35,0.0
19072,-364,2376,-168,146,-151,2024-01-24 10:26:35,0.0
18992,-272,2344,-152,194,-155,2024-01-24 10:26:35,0.0
18940,-276,2432,-168,185,-172,2024-01-24 10:26:35,0.0
18984,-248,2380,-148,171,-194,2024-01-24 10:26:35,0.0
18908,-404,2376,-163,163,-168,2024-01-24 10:26:35,0.0
18896,-308,2364,-152,196,-189,2024-01-24 10:26:35,0.0
19036,-344,2504,-151,188,-182,2024-01-24 10:26:35,0.0
18964,-220,2276,-164,180,-192,2024-01-24 10:26:35,0.0
18924,-348,2360,-191,218,-183,2024-01-24 10:26:35,0.0
18884,-296,2396,-150,180,-188,2024-01-24 10:26:35,0.0
19128,-244,2320,-196,167,-177,2024-01-24 10:26:35,0.0
19024,-340,2348,-167,166,-161,2024-01-24 10:26:35,0.0
19052,-220,2160,-178,187,-181,2024-01-24 10:26:35,0.0
18992,-352,2396,-164,184,-187,2024-01-24 10:26:35,0.0
18916,-296,2356,-145,163,-209,2024-01-24 10:26:35,0.0
18972,-184,2396,-167,170,-172,2024-01-24 10:26:35,0.0
19048,-248,2392,-155,180,-172,2024-01-24 10:26:35,0.0
18844,-276,2264,-143,183,-177,2024-01-24 10:26:35,0.0
18912,-176,2480,-139,194,-180,2024-01-24 10:26:35,0.0
19064,-220,2400,-177,189,-148,2024-01-24 10:26:35,
18952,-332,2364,-167,178,-186,2024-01-24 10:26:35,0.0
18956,-324,2288,-171,166,-162,2024-01-24 10:26:35,0.0
18940,-304,2268,-151,170,-178,2024-01-24 10:26:35,0.0
18968,-344,2360,-169,178,-180,2024-01-24 10:26:35,0.0
18900,-232,2460,-180,192,-173,2024-01-24 10:26:35,0.0
18992,-324,2344,-208,170,-192,2024-01-24 10:26:35,0.0
18920,-112,2396,-145,165,-194,2024-01-24 10:26:36,0.0
18944,-256,2320,-175,183,-166,2024-01-24 10:26:36,0.0
19024,-328,2392,-175,204,-188,2024-01-24 10:26:36,0.0
19080,-340,2304,-143,145,-180,2024-01-24 10:26:36,0.0
18848,-296,2432,-180,172,-168,2024-01-24 10:26:36,0.0
19024,-220,2432,-178,161,-186,2024-01-24 10:26:36,0.0
18952,-380,2256,-175,197,-174,2024-01-24 10:26:36,0.0
18988,-324,2352,-172,218,-191,2024-01-24 10:26:36,0.0
18892,-284,2460,-150,158,-160,2024-01-24 10:26:36,0.0
18956,-288,2360,-161,161,-167,2024-01-24 10:26:36,0.0
18856,-360,2272,-169,170,-184,2024-01-24 10:26:36,0.0
18984,-348,2324,-162,161,-186,2024-01-24 10:26:36,0.0
18956,-272,2400,-183,144,-201,2024-01-24 10:26:36,0.0
19040,-220,2436,-149,205,-169,2024-01-24 10:26:36,0.0
18904,-320,2364,-158,137,-170,2024-01-24 10:26:36,0.0
