acceleration_x,acceleration_y,acceleration_z,gyroscope_x,gyroscope_y,gyroscope_z,timestamp,label
2424,-508,18440,-116,317,4276,2024-01-24 10:19:05,0.0
2224,-492,18532,-142,128,5277,2024-01-24 10:19:05,0.0
3008,-132,18512,-94,168,4708,2024-01-24 10:19:05,0.0
2888,-708,17776,-77,263,3096,2024-01-24 10:19:05,0.0
3848,264,18600,-91,254,1640,2024-01-24 10:19:05,0.0
3468,236,18596,-181,136,207,2024-01-24 10:19:05,0.0
2692,-232,18696,-189,156,-184,2024-01-24 10:19:05,0.0
2864,-308,19056,63,374,-289,2024-01-24 10:19:05,0.0
2416,-216,18036,-518,-203,-656,2024-01-24 10:19:05,0.0
3116,-200,18880,8,314,-829,2024-01-24 10:19:05,0.0
2704,-160,18360,-168,142,-1237,2024-01-24 10:19:05,0.0
2444,-400,18628,-212,150,-960,2024-01-24 10:19:05,0.0
2756,-156,18628,-77,259,-816,2024-01-24 10:19:05,0.0
2316,-444,18524,-157,152,-563,2024-01-24 10:19:05,0.0
2656,-284,18592,-126,205,-309,2024-01-24 10:19:05,0.0
2680,-324,18672,-134,212,-169,2024-01-24 10:19:05,0.0
2600,-140,18452,-105,251,-192,2024-01-24 10:19:05,0.0
2592,-84,18540,-150,176,-162,2024-01-24 10:19:05,0.0
2656,-200,18592,-186,141,-159,2024-01-24 10:19:05,0.0
2556,-228,18540,-427,-139,-172,2024-01-24 10:19:05,0.0
2636,-236,18580,-89,253,-189,2024-01-24 10:19:05,0.0
2668,-220,18496,-176,163,-171,2024-01-24 10:19:05,0.0
2628,-236,18552,-164,173,-205,2024-01-24 10:19:05,0.0
2752,-216,18636,-238,101,-178,2024-01-24 10:19:07,0.0
2676,-336,18632,-146,171,-178,2024-01-24 10:19:07,0.0
2736,-256,18672,-134,179,-191,2024-01-24 10:19:07,0.0
2668,-260,18632,-117,220,-175,2024-01-24 10:19:07,0.0
2656,-196,18584,-192,160,-184,2024-01-24 10:19:07,0.0
2648,-276,18584,-196,156,-160,2024-01-24 10:19:07,0.0
2636,-156,18604,-203,123,-177,2024-01-24 10:19:07,0.0
2732,-180,18608,-181,170,-187,2024-01-24 10:19:07,0.0
2564,-248,18568,-162,150,-187,2024-01-24 10:19:07,0.0
2600,-124,18584,-160,179,-160,2024-01-24 10:19:07,0.0
2580,-352,18684,-172,193,-166,2024-01-24 10:19:07,0.0
2560,-220,18544,-155,183,-197,2024-01-24 10:19:07,0.0
2616,-244,18652,-180,178,-190,2024-01-24 10:19:07,0.0
2564,-108,18680,-178,199,-169,2024-01-24 10:19:07,0.0
2644,-276,18480,-158,164,-153,2024-01-24 10:19:07,0.0
2648,-212,18708,-139,166,-171,2024-01-24 10:19:07,0.0
2752,-304,18512,-171,178,-174,2024-01-24 10:19:07,0.0
2740,-380,18688,-124,144,-178,2024-01-24 10:19:07,0.0
2712,-224,18504,-181,151,-172,2024-01-24 10:19:07,0.0
2716,-240,18548,-162,183,-191,2024-01-24 10:19:07,0.0
2584,-224,18452,-167,133,-178,2024-01-24 10:19:07,0.0
2628,-220,18604,-162,173,-174,2024-01-24 10:19:07,0.0
2660,-200,18636,-183,166,-180,2024-01-24 10:19:07,0.0
2660,-148,18496,-165,167,-182,2024-01-24 10:19:07,0.0
2724,-156,18588,-148,163,-199,2024-01-24 10:19:07,0.0
2756,-168,18640,-162,173,-164,2024-01-24 10:19:07,0.0
2624,-220,18548,-159,170,-183,2024-01-24 10:19:07,0.0
2672,-216,18548,-158,162,-181,2024-01-24 10:19:07,0.0
2716,-232,18584,-157,175,-185,2024-01-24 10:19:07,0.0
2752,-236,18544,-149,166,-179,2024-01-24 10:19:07,0.0
2680,-220,18660,-143,155,-188,2024-01-24 10:19:07,0.0
2672,-184,18668,-160,169,-196,2024-01-24 10:19:07,0.0
2592,-176,18536,-176,161,-158,2024-01-24 10:19:07,0.0
2608,-224,18504,-169,163,-192,2024-01-24 10:19:07,0.0
2616,-248,18700,-170,174,-193,2024-01-24 10:19:07,0.0
2616,-260,18500,-158,156,-199,2024-01-24 10:19:07,0.0
2680,-116,18536,-150,172,-180,2024-01-24 10:19:07,0.0
2668,-212,18708,-183,150,-181,2024-01-24 10:19:07,0.0
2664,-316,18544,-168,194,-183,2024-01-24 10:19:07,0.0
2660,-288,18604,-182,186,-182,2024-01-24 10:19:07,0.0
2696,-244,18672,-149,153,-174,2024-01-24 10:19:07,0.0
2684,-400,18520,-143,161,-204,2024-01-24 10:19:07,0.0
2640,-228,18768,-191,169,-179,2024-01-24 10:19:07,0.0
2644,-228,18492,-143,162,-165,2024-01-24 10:19:07,0.0
2604,-96,18560,-181,153,-172,2024-01-24 10:19:07,0.0
2680,-136,18540,-136,150,-173,2024-01-24 10:19:08,0.0
2648,-176,18552,-147,163,-178,2024-01-24 10:19:08,0.0
2732,-284,18648,-159,146,-171,2024-01-24 10:19:08,0.0
2648,-272,18604,-166,190,-176,2024-01-24 10:19:08,0.0
2748,-296,18452,-157,153,-186,2024-01-24 10:19:08,0.0
2664,-208,18692,-183,175,-174,2024-01-24 10:19:08,0.0
2636,-276,18620,-140,168,-194,2024-01-24 10:19:08,0.0
2716,-232,18768,-158,199,-173,2024-01-24 10:19:08,0.0
2552,-240,18516,-145,148,-179,2024-01-24 10:19:08,0.0
2584,-272,18588,-165,168,-175,2024-01-24 10:19:08,0.0
2596,-228,18548,-149,128,-192,2024-01-24 10:19:08,0.0
2640,-168,18476,-168,157,-191,2024-01-24 10:19:08,0.0
2632,-164,18484,-143,157,-182,2024-01-24 10:19:08,0.0
2712,-172,18584,-181,151,-208,2024-01-24 10:19:08,0.0
2724,-200,18460,-168,172,-185,2024-01-24 10:19:08,0.0
2652,-268,18640,-170,177,-190,2024-01-24 10:19:08,0.0
2704,-304,18584,-143,167,-169,2024-01-24 10:19:08,0.0
2700,-244,18520,-173,176,-179,2024-01-24 10:19:08,0.0
2564,-188,18452,-182,173,-163,2024-01-24 10:19:08,0.0
2600,-208,18520,-195,153,-182,2024-01-24 10:19:08,0.0
2524,-208,18680,-165,174,-146,2024-01-24 10:19:08,0.0
2624,-112,18536,-150,179,-191,2024-01-24 10:19:08,0.0
2576,-236,18596,-187,145,-186,2024-01-24 10:19:08,0.0
2644,-236,18544,-143,157,-176,2024-01-24 10:19:08,0.0
2812,-216,18648,-175,162,-179,2024-01-24 10:19:08,0.0
2748,-108,18528,-174,167,-174,2024-01-24 10:19:08,0.0
2744,-212,18528,-177,145,-179,2024-01-24 10:19:08,0.0
2632,-340,18488,-177,174,-164,2024-01-24 10:19:08,0.0
2652,-360,18724,-145,163,-197,2024-01-24 10:19:08,0.0
2672,-172,18584,-159,183,-174,2024-01-24 10:19:08,0.0
2640,-256,18708,-194,171,-178,2024-01-24 10:19:08,0.0
2584,-124,18480,-156,186,-186,2024-01-24 10:19:08,
2740,-308,18576,-169,167,-213,2024-01-24 10:19:08,0.0
2608,-212,18700,-142,174,-162,2024-01-24 10:19:08,0.0
2524,-324,18692,-147,157,-187,2024-01-24 10:19:08,0.0
2604,-284,18584,-154,188,-162,2024-01-24 10:19:08,0.0
2712,-144,18656,-172,188,-176,2024-01-24 10:19:08,0.0
2680,-140,18624,-154,169,-184,2024-01-24 10:19:08,0.0
2668,-240,18592,-144,155,-170,2024-01-24 10:19:08,0.0
2740,-268,18628,-138,147,-179,2024-01-24 10:19:08,0.0
2712,-292,18576,-147,170,-182,2024-01-24 10:19:08,0.0
2724,-264,18556,-176,151,-178,2024-01-24 10:19:08,0.0
2608,-56,18604,-175,157,-176,2024-01-24 10:19:08,0.0
2692,-228,18608,-153,159,-183,2024-01-24 10:19:08,0.0
2808,-132,18340,-143,170,-158,2024-01-24 10:19:08,0.0
2504,-216,18412,-137,200,-167,2024-01-24 10:19:08,0.0
2548,-384,18272,-170,141,-187,2024-01-24 10:19:08,0.0
2184,-204,18912,-168,146,-151,2024-01-24 10:19:08,0.0
2476,-384,18284,-142,154,-169,2024-01-24 10:19:08,0.0
2720,-156,18484,-182,145,-187,2024-01-24 10:19:08,0.0
2564,-140,18544,-173,148,-175,2024-01-24 10:19:08,0.0
2604,-240,18692,-176,198,-197,2024-01-24 10:19:08,0.0
1932,-500,18884,-139,104,-171,2024-01-24 10:19:08,0.0
2580,-132,17904,-157,148,-160,2024-01-24 10:19:08,0.0
2776,-88,18568,-173,178,-150,2024-01-24 10:19:08,0.0
2684,-160,18420,-170,180,-149,2024-01-24 10:19:08,0.0
2724,-376,18576,-152,152,-166,2024-01-24 10:19:08,0.0
3244,-284,19448,-168,73,-147,2024-01-24 10:19:08,0.0
3004,-348,17584,-160,173,-180,2024-01-24 10:19:08,0.0
2976,-140,18620,-178,159,-167,2024-01-24 10:19:08,0.0
2748,-212,18660,-170,175,-195,2024-01-24 10:19:08,0.0
2784,-144,18056,-151,180,-198,2024-01-24 10:19:08,0.0
2216,-456,19348,-183,143,-143,2024-01-24 10:19:09,0.0
2368,-100,17856,-179,219,-166,2024-01-24 10:19:09,0.0
2572,-208,17672,-147,169,-167,2024-01-24 10:19:09,0.0
3160,-84,18708,-155,117,-179,2024-01-24 10:19:09,0.0
2824,-140,18256,-197,187,-199,2024-01-24 10:19:09,0.0
2572,-184,18608,-143,154,-187,2024-01-24 10:19:09,0.0
2664,-224,18612,-205,167,-174,2024-01-24 10:19:09,0.0
2672,-288,18372,-179,181,-181,2024-01-24 10:19:09,0.0
2580,-184,18604,-186,167,-185,2024-01-24 10:19:09,0.0
2680,-244,18724,-173,170,-200,2024-01-24 10:19:09,0.0
2648,-216,18536,-139,189,-184,2024-01-24 10:19:09,0.0
2648,-224,18684,-172,179,-171,2024-01-24 10:19:09,0.0
2608,-188,18500,-182,183,-179,2024-01-24 10:19:09,0.0
2716,-248,18756,-162,184,-178,2024-01-24 10:19:09,0.0
2616,-168,18624,-141,181,-162,2024-01-24 10:19:09,0.0
2624,-220,18564,-185,154,-162,2024-01-24 10:19:09,0.0
2652,-184,18416,-189,166,-187,2024-01-24 10:19:09,0.0
2748,-228,18600,-160,159,-168,2024-01-24 10:19:09,0.0
2668,-204,18576,-162,161,-165,2024-01-24 10:19:09,0.0
2620,-328,18640,-170,165,-194,2024-01-24 10:19:09,0.0
2672,-220,18596,-164,174,-185,2024-01-24 10:19:09,0.0
2660,-152,18552,-199,163,-179,2024-01-24 10:19:09,0.0
2632,-244,18504,-174,180,-187,2024-01-24 10:19:09,0.0
2600,-216,18544,-165,177,-172,2024-01-24 10:19:09,0.0
2544,-288,18708,-175,156,-196,2024-01-24 10:19:09,0.0
2724,-236,18652,-180,136,-169,2024-01-24 10:19:09,0.0
2600,-200,18656,-142,168,-156,2024-01-24 10:19:09,0.0
2676,-288,18656,-176,182,-194,2024-01-24 10:19:09,0.0
2744,-212,18564,-152,153,-170,2024-01-24 10:19:09,0.0
2784,-212,18544,-203,176,-168,2024-01-24 10:19:09,0.0
2712,-220,18504,-188,184,-195,2024-01-24 10:19:09,0.0
2696,-192,18636,-153,163,-172,2024-01-24 10:19:09,0.0
2712,-324,18516,-142,162,-176,2024-01-24 10:19:09,0.0
2712,-296,18632,-153,134,-167,2024-01-24 10:19:09,0.0
2700,-200,18660,-167,179,-171,2024-01-24 10:19:09,0.0
2676,-220,18620,-161,198,-184,2024-01-24 10:19:09,0.0
2692,-252,18484,-156,137,-174,2024-01-24 10:19:09,0.0
2700,-232,18580,-143,159,-176,2024-01-24 10:19:09,0.0
2584,-232,18448,-163,176,-174,2024-01-24 10:19:09,0.0
2712,-232,18624,-153,165,-176,2024-01-24 10:19:09,0.0
2640,-228,18636,-163,179,-173,2024-01-24 10:19:09,0.0
2724,-268,18608,-153,157,-153,2024-01-24 10:19:09,0.0
2764,-268,18708,-145,157,-189,2024-01-24 10:19:09,0.0
2756,-224,18608,-147,190,-177,2024-01-24 10:19:09,0.0
2740,-272,18444,-146,172,-182,2024-01-24 10:19:09,0.0
2672,-280,18488,-183,174,-176,2024-01-24 10:19:09,0.0
2640,-276,18592,-143,167,-178,2024-01-24 10:19:09,0.0
2628,-288,18604,-164,134,-196,2024-01-24 10:19:09,0.0
2784,-280,18412,-164,168,-186,2024-01-24 10:19:09,0.0
2712,-248,18524,-160,175,-149,2024-01-24 10:19:09,0.0
2676,-244,18496,-150,166,-156,2024-01-24 10:19:09,0.0
2660,-300,18564,-177,148,-144,2024-01-24 10:19:09,0.0
2544,-284,18704,-163,148,-182,2024-01-24 10:19:09,0.0
2692,-196,18452,-141,160,-197,2024-01-24 10:19:09,0.0
2688,-156,18508,-160,165,-194,2024-01-24 10:19:09,0.0
2732,-180,18408,-194,172,-181,2024-01-24 10:19:09,0.0
2716,-224,19648,-99,203,-176,2024-01-24 10:19:09,0.0
2440,-256,18488,-207,168,-168,2024-01-24 10:19:09,0.0
2568,-304,18556,-152,192,-199,2024-01-24 10:19:09,0.0
2584,-156,18252,-165,156,-191,2024-01-24 10:19:09,0.0
2648,-144,18612,-143,163,-184,2024-01-24 10:19:09,0.0
2720,-172,18624,-146,189,-158,2024-01-24 10:19:10,0.0
2564,-332,18608,-183,144,-173,2024-01-24 10:19:10,0.0
2620,-312,18584,-154,175,-164,2024-01-24 10:19:10,0.0
2728,-196,18608,-163,207,-199,2024-01-24 10:19:10,0.0
2732,-200,18724,-162,171,-161,2024-01-24 10:19:10,0.0
2704,-156,18724,-169,149,-172,2024-01-24 10:19:10,0.0
2760,-248,18648,-180,179,-210,2024-01-24 10:19:10,0.0
2556,-132,18732,-158,181,-154,2024-01-24 10:19:10,0.0
2508,-236,18692,-167,145,-172,2024-01-24 10:19:10,
2688,-236,18544,-162,177,-204,2024-01-24 10:19:10,0.0
2692,-284,18660,-148,155,-153,2024-01-24 10:19:10,0.0
2716,-128,18488,-132,162,-175,2024-01-24 10:19:10,0.0
2616,-196,18524,-188,162,-192,2024-01-24 10:19:10,0.0
2708,-256,18608,-157,173,-187,2024-01-24 10:19:10,0.0
2688,-280,18608,-180,143,-156,2024-01-24 10:19:10,0.0
2668,-256,18500,-172,157,-180,2024-01-24 10:19:10,0.0
2672,-248,18604,-129,185,-191,2024-01-24 10:19:10,0.0
2560,-256,18484,-169,154,-156,2024-01-24 10:19:10,0.0
2668,-32,18588,-141,178,-177,2024-01-24 10:19:10,0.0
2684,-220,18656,-158,146,-180,2024-01-24 10:19:10,0.0
2620,-280,18528,-156,162,-176,2024-01-24 10:19:10,0.0
2724,-336,18552,-160,162,-160,2024-01-24 10:19:10,0.0
2680,-216,18532,-162,148,-177,2024-01-24 10:19:10,0.0
2680,-212,18556,-165,157,-169,2024-01-24 10:19:10,0.0
2780,-112,18508,-176,157,-162,2024-01-24 10:19:10,0.0
2752,-156,18500,-152,169,-182,2024-01-24 10:19:10,0.0
2600,-244,18556,-163,182,-190,2024-01-24 10:19:10,0.0
2592,-276,18448,-181,178,-183,2024-01-24 10:19:10,0.0
2688,-232,18564,-169,175,-192,2024-01-24 10:19:10,0.0
2680,-264,18544,-183,173,-168,2024-01-24 10:19:10,0.0
2700,-236,18568,-150,154,-199,2024-01-24 10:19:10,0.0
2652,-228,18700,-154,164,-157,2024-01-24 10:19:10,0.0
2644,-264,18436,-180,163,-176,2024-01-24 10:19:10,0.0
2644,-272,18864,-171,153,-189,2024-01-24 10:19:10,0.0
2792,-284,18444,-147,162,-206,2024-01-24 10:19:10,0.0
2648,-156,18640,-148,166,-164,2024-01-24 10:19:10,0.0
2760,-140,18532,-154,181,-172,2024-01-24 10:19:10,0.0
2580,-184,18560,-163,161,-179,2024-01-24 10:19:10,0.0
2568,-260,18532,-165,168,-194,2024-01-24 10:19:10,0.0
2516,-144,18688,-162,146,-199,2024-01-24 10:19:10,0.0
2616,-196,18656,-154,163,-166,2024-01-24 10:19:10,0.0
2612,-188,18608,-153,155,-170,2024-01-24 10:19:10,0.0
2744,-236,18688,-178,166,-153,2024-01-24 10:19:10,0.0
2692,-316,18596,-152,193,-181,2024-01-24 10:19:10,0.0
2712,-196,18564,-166,185,-197,2024-01-24 10:19:10,0.0
2764,-252,18556,-179,187,-169,2024-01-24 10:19:10,0.0
2636,-168,18484,-155,186,-174,2024-01-24 10:19:10,0.0
2588,-156,18504,-177,171,-186,2024-01-24 10:19:10,0.0
2616,-268,18456,-171,172,-184,2024-01-24 10:19:10,0.0
2496,-152,18596,-176,179,-219,2024-01-24 10:19:10,0.0
2724,-128,18636,-161,157,-181,2024-01-24 10:19:10,0.0
2696,-216,18640,-134,170,-181,2024-01-24 10:19:10,0.0
2728,-316,18448,-148,147,-171,2024-01-24 10:19:10,0.0
2716,-220,18596,-176,163,-177,2024-01-24 10:19:10,0.0
2796,-268,18564,-154,172,-173,2024-01-24 10:19:10,0.0
2624,-288,18664,-148,177,-186,2024-01-24 10:19:10,0.0
2560,-208,18624,-155,151,-166,2024-01-24 10:19:10,0.0
2556,-188,18596,-188,148,-185,2024-01-24 10:19:10,0.0
2540,-152,18508,-171,154,-168,2024-01-24 10:19:10,0.0
2620,-172,18556,-167,163,-177,2024-01-24 10:19:10,0.0
2588,-204,18716,-180,160,-179,2024-01-24 10:19:11,0.0
2652,-132,18676,-172,152,-196,2024-01-24 10:19:11,0.0
2672,-216,18592,-155,165,-185,2024-01-24 10:19:11,0.0
2684,-244,18452,-149,182,-172,2024-01-24 10:19:11,0.0
2744,-328,18392,-168,152,-185,2024-01-24 10:19:11,0.0
2736,-256,18548,-190,161,-177,2024-01-24 10:19:11,0.0
2760,-268,18464,-170,181,-172,2024-01-24 10:19:11,0.0
2752,-228,18492,-169,188,-171,2024-01-24 10:19:11,0.0
2588,-216,18672,-161,145,-207,2024-01-24 10:19:11,0.0
2524,-172,18632,-202,168,-184,2024-01-24 10:19:11,0.0
2524,-208,18608,-141,151,-163,2024-01-24 10:19:11,0.0
2604,-124,18628,-172,161,-164,2024-01-24 10:19:11,0.0
2652,-172,18564,-174,151,-158,2024-01-24 10:19:11,0.0
2716,-264,18400,-181,179,-181,2024-01-24 10:19:11,0.0
2752,-188,18588,-175,180,-191,2024-01-24 10:19:11,0.0
2748,-228,18796,-150,193,-182,2024-01-24 10:19:11,0.0
2844,-164,18672,-144,170,-170,2024-01-24 10:19:11,0.0
2688,-144,18500,-160,153,-186,2024-01-24 10:19:11,0.0
2644,-252,18700,-159,176,-192,2024-01-24 10:19:11,0.0
2632,-184,18620,-178,186,-166,2024-01-24 10:19:11,0.0
2572,-176,18748,-183,178,-176,2024-01-24 10:19:11,0.0
2624,-144,18548,-187,170,-183,2024-01-24 10:19:11,0.0
2636,-196,18572,-161,152,-202,2024-01-24 10:19:11,0.0
2652,-316,18756,-166,153,-169,2024-01-24 10:19:11,0.0
2768,-312,18652,-144,175,-174,2024-01-24 10:19:11,0.0
2684,-244,18420,-153,183,-188,2024-01-24 10:19:11,0.0
2824,-288,18492,-175,198,-183,2024-01-24 10:19:11,0.0
2668,-112,18608,-133,161,-183,2024-01-24 10:19:11,0.0
2656,-260,18596,-144,167,-185,2024-01-24 10:19:11,0.0
2592,-284,18596,-167,202,-173,2024-01-24 10:19:11,0.0
2556,-168,18472,-173,174,-162,2024-01-24 10:19:11,0.0
2604,-272,18564,-177,163,-173,2024-01-24 10:19:11,0.0
2568,-256,18448,-164,159,-190,2024-01-24 10:19:11,0.0
2752,-264,18520,-160,169,-172,2024-01-24 10:19:11,0.0
2736,-200,18680,-195,147,-203,2024-01-24 10:19:11,0.0
2768,-256,18692,-165,170,-204,2024-01-24 10:19:11,0.0
2648,-356,18648,-188,165,-158,2024-01-24 10:19:11,0.0
2776,-268,18564,-166,169,-187,2024-01-24 10:19:11,0.0
2760,-184,18624,-183,160,-183,2024-01-24 10:19:11,0.0
2656,-268,18652,-168,185,-157,2024-01-24 10:19:11,0.0
2588,-88,18520,-165,173,-195,2024-01-24 10:19:11,0.0
2660,-256,18616,-159,179,-199,2024-01-24 10:19:11,0.0
2600,-160,18536,-147,169,-176,2024-01-24 10:19:11,0.0
2620,-232,18456,-171,183,-187,2024-01-24 10:19:11,0.0
2728,-216,18556,-171,153,-156,2024-01-24 10:19:11,0.0
2724,-236,18572,-157,159,-182,2024-01-24 10:19:11,0.0
2796,-268,18688,-164,188,-188,2024-01-24 10:19:11,0.0
2736,-276,18628,-154,163,-200,2024-01-24 10:19:11,0.0
2804,-252,18456,-184,166,-177,2024-01-24 10:19:11,
2836,-400,18704,-181,168,-185,2024-01-24 10:19:11,0.0
2664,-188,18688,-177,158,-178,2024-01-24 10:19:11,0.0
2764,-116,18544,-173,171,-179,2024-01-24 10:19:11,0.0
2624,-144,18612,-186,160,-180,2024-01-24 10:19:11,0.0
2540,-76,18504,-131,178,-170,2024-01-24 10:19:11,0.0
2580,-208,18632,-149,167,-190,2024-01-24 10:19:11,0.0
2512,-228,18616,-170,187,-170,2024-01-24 10:19:11,0.0
2644,-132,18688,-184,141,-173,2024-01-24 10:19:11,0.0
2624,-184,18700,-176,163,-178,2024-01-24 10:19:11,0.0
2744,-188,18704,-162,151,-183,2024-01-24 10:19:11,0.0
2780,-260,18588,-189,167,-180,2024-01-24 10:19:11,0.0
2820,-272,18688,-158,157,-181,2024-01-24 10:19:11,0.0
2728,-316,18532,-172,161,-167,2024-01-24 10:19:12,0.0
2724,-240,18612,-132,174,-168,2024-01-24 10:19:12,0.0
2692,-116,18596,-158,156,-185,2024-01-24 10:19:12,0.0
2584,-88,18500,-169,156,-164,2024-01-24 10:19:12,0.0
2548,-172,18580,-165,148,-189,2024-01-24 10:19:12,0.0
2560,-232,18632,-165,160,-195,2024-01-24 10:19:12,0.0
2516,-160,18792,-146,177,-187,2024-01-24 10:19:12,0.0
2560,-288,18596,-185,152,-174,2024-01-24 10:19:12,0.0
2604,-228,18448,-163,157,-162,2024-01-24 10:19:12,0.0
2664,-240,18448,-148,162,-163,2024-01-24 10:19:12,0.0
2768,-264,18716,-177,168,-176,2024-01-24 10:19:12,0.0
2684,-264,18628,-158,149,-176,2024-01-24 10:19:12,0.0
2828,-272,18596,-169,191,-161,2024-01-24 10:19:12,0.0
2668,-208,18576,-187,176,-179,2024-01-24 10:19:12,0.0
2648,-272,18560,-145,178,-178,2024-01-24 10:19:12,0.0
2732,-196,18560,-169,179,-166,2024-01-24 10:19:12,0.0
2600,-116,18668,-143,156,-196,2024-01-24 10:19:12,0.0
2652,-160,18580,-145,151,-177,2024-01-24 10:19:12,0.0
2616,-312,18704,-179,168,-181,2024-01-24 10:19:12,0.0
2612,-232,18764,-181,155,-182,2024-01-24 10:19:12,0.0
2692,-176,18464,-194,154,-182,2024-01-24 10:19:12,0.0
2612,-260,18560,-150,189,-174,2024-01-24 10:19:12,0.0
2696,-240,18580,-165,177,-187,2024-01-24 10:19:12,0.0
2768,-216,18704,-164,164,-181,2024-01-24 10:19:12,0.0
2696,-220,18584,-164,151,-190,2024-01-24 10:19:12,0.0
2604,-144,18456,-165,163,-171,2024-01-24 10:19:12,0.0
2560,-216,18548,-159,166,-158,2024-01-24 10:19:12,0.0
2632,-140,18676,-180,184,-188,2024-01-24 10:19:12,0.0
2584,-220,18596,-177,188,-176,2024-01-24 10:19:12,0.0
2708,-152,18412,-183,173,-167,2024-01-24 10:19:12,0.0
2868,-196,18632,-183,158,-194,2024-01-24 10:19:12,0.0
2740,-212,18540,-169,180,-176,2024-01-24 10:19:12,0.0
2684,-256,18696,-165,193,-187,2024-01-24 10:19:12,0.0
2628,-228,18592,-173,181,-176,2024-01-24 10:19:12,0.0
2648,-164,18588,-190,162,-157,2024-01-24 10:19:12,0.0
2692,-152,18688,-149,188,-186,2024-01-24 10:19:12,0.0
2748,-288,18492,-188,187,-187,2024-01-24 10:19:12,0.0
2716,-216,18812,-141,172,-174,2024-01-24 10:19:12,0.0
2624,-276,18456,-172,165,-183,2024-01-24 10:19:12,0.0
2692,-172,18580,-171,152,-178,2024-01-24 10:19:12,0.0
2744,-284,18368,-171,160,-182,2024-01-24 10:19:12,0.0
2644,-172,18432,-184,167,-156,2024-01-24 10:19:12,0.0
2736,-164,18456,-169,131,-165,2024-01-24 10:19:12,0.0
2552,-100,18652,-150,145,-193,2024-01-24 10:19:12,0.0
2696,-256,18528,-166,167,-188,2024-01-24 10:19:12,0.0
2736,-144,18776,-182,181,-167,2024-01-24 10:19:12,0.0
2600,-212,18508,-196,194,-186,2024-01-24 10:19:12,0.0
2644,-232,18556,-159,176,-164,2024-01-24 10:19:12,0.0
2680,-228,18540,-183,178,-191,2024-01-24 10:19:12,0.0
2772,-272,18588,-146,171,-162,2024-01-24 10:19:12,0.0
2732,-216,18628,-151,162,-192,2024-01-24 10:19:12,0.0
2748,-268,18480,-153,157,-199,2024-01-24 10:19:12,0.0
2704,-240,18532,-179,188,-164,2024-01-24 10:19:12,0.0
2652,-112,18640,-177,153,-191,2024-01-24 10:19:12,0.0
2644,-248,18496,-161,141,-178,2024-01-24 10:19:12,0.0
2668,-244,18692,-157,181,-189,2024-01-24 10:19:12,0.0
2732,-168,18564,-162,176,-157,2024-01-24 10:19:12,0.0
2648,-184,18532,-174,147,-169,2024-01-24 10:19:12,0.0
2636,-120,18532,-133,156,-180,2024-01-24 10:19:12,0.0
2652,-280,18516,-130,143,-199,2024-01-24 10:19:12,0.0
2716,-284,18692,-160,155,-183,2024-01-24 10:19:12,0.0
2720,-248,18520,-152,149,-178,2024-01-24 10:19:13,0.0
2716,-232,18588,-161,149,-158,2024-01-24 10:19:13,0.0
2696,-200,18644,-138,183,-169,2024-01-24 10:19:13,0.0
2672,-200,18592,-113,151,-191,2024-01-24 10:19:13,0.0
2656,-212,18516,-142,146,-193,2024-01-24 10:19:13,0.0
2572,-232,18868,-140,167,-181,2024-01-24 10:19:13,0.0
2524,-276,18676,-217,165,-179,2024-01-24 10:19:13,0.0
2600,-284,18744,-152,176,-187,2024-01-24 10:19:13,0.0
2732,-112,18380,-172,150,-199,2024-01-24 10:19:13,0.0
2820,-216,18676,-147,156,-179,2024-01-24 10:19:13,0.0
2816,-328,18412,-141,162,-155,2024-01-24 10:19:13,0.0
2644,-488,18524,-150,145,-173,2024-01-24 10:19:13,0.0
2616,-328,18528,-138,132,-199,2024-01-24 10:19:13,0.0
2660,-180,18632,-160,170,-160,2024-01-24 10:19:13,0.0
2704,-184,18548,-152,168,-182,2024-01-24 10:19:13,0.0
2696,-212,18568,-163,178,-160,2024-01-24 10:19:13,0.0
2628,-176,18652,-172,175,-166,2024-01-24 10:19:13,0.0
2624,-192,18488,-145,165,-176,2024-01-24 10:19:13,0.0
2724,-208,18676,-127,145,-184,2024-01-24 10:19:13,0.0
2620,-204,18580,-149,148,-174,2024-01-24 10:19:13,0.0
2872,-276,18652,-140,170,-166,2024-01-24 10:19:13,0.0
2736,-260,18612,-150,172,-174,2024-01-24 10:19:13,0.0
2632,-180,18508,-166,179,-211,2024-01-24 10:19:13,0.0
2656,-232,18520,-168,146,-189,2024-01-24 10:19:13,0.0
2772,-112,18640,-174,158,-193,2024-01-24 10:19:13,0.0
2544,-120,18728,-153,187,-182,2024-01-24 10:19:13,0.0
2660,-52,18532,-144,175,-177,2024-01-24 10:19:13,
2532,-76,18572,-188,151,-171,2024-01-24 10:19:13,0.0
2528,-324,18636,-157,185,-179,2024-01-24 10:19:13,0.0
2648,-296,18596,-185,175,-167,2024-01-24 10:19:13,0.0
2712,-132,18568,-192,157,-202,2024-01-24 10:19:13,0.0
2748,-260,18472,-165,178,-194,2024-01-24 10:19:13,0.0
2804,-228,18684,-148,165,-184,2024-01-24 10:19:13,0.0
2740,-188,18484,-165,146,-179,2024-01-24 10:19:13,0.0
2600,-232,18548,-177,178,-182,2024-01-24 10:19:13,0.0
2696,-168,18448,-163,189,-170,2024-01-24 10:19:13,0.0
2684,-124,18644,-181,192,-175,2024-01-24 10:19:13,0.0
2764,-124,18388,-156,148,-180,2024-01-24 10:19:13,0.0
2672,-184,18528,-207,145,-176,2024-01-24 10:19:13,0.0
2704,-264,18596,-171,180,-190,2024-01-24 10:19:13,0.0
2700,-232,18644,-163,164,-195,2024-01-24 10:19:13,0.0
2728,-228,18524,-174,168,-174,2024-01-24 10:19:13,0.0
2676,-296,18608,-167,158,-186,2024-01-24 10:19:13,0.0
2704,-140,18504,-156,149,-154,2024-01-24 10:19:13,0.0
2644,-304,18488,-168,176,-190,2024-01-24 10:19:13,0.0
2668,-216,18580,-188,169,-154,2024-01-24 10:19:13,0.0
2648,-252,18528,-179,172,-167,2024-01-24 10:19:13,0.0
2656,-156,18552,-198,175,-187,2024-01-24 10:19:13,0.0
2672,-120,18588,-172,180,-168,2024-01-24 10:19:13,0.0
2840,-264,18444,-167,167,-174,2024-01-24 10:19:13,0.0
2716,-160,18540,-159,178,-161,2024-01-24 10:19:13,0.0
2652,-252,18616,-163,164,-164,2024-01-24 10:19:13,0.0
2688,-252,18556,-166,179,-174,2024-01-24 10:19:13,0.0
2708,-176,18620,-152,181,-201,2024-01-24 10:19:13,0.0
2624,-144,18508,-171,172,-184,2024-01-24 10:19:13,0.0
2772,-168,18604,-169,202,-177,2024-01-24 10:19:13,0.0
2680,-220,18396,-164,166,-183,2024-01-24 10:19:13,0.0
2592,-336,18696,-172,162,-193,2024-01-24 10:19:13,0.0
2604,-152,18696,-172,189,-180,2024-01-24 10:19:13,0.0
2624,-240,18620,-157,137,-188,2024-01-24 10:19:13,0.0
2688,-176,18500,-171,165,-179,2024-01-24 10:19:13,0.0
2628,-152,18716,-179,149,-183,2024-01-24 10:19:13,0.0
2584,-164,18572,-168,161,-166,2024-01-24 10:19:14,0.0
2684,-276,18648,-164,159,-195,2024-01-24 10:19:14,0.0
2704,-232,18528,-156,149,-181,2024-01-24 10:19:14,0.0
2668,-296,18580,-160,167,-170,2024-01-24 10:19:14,0.0
2716,-236,18476,-160,157,-186,2024-01-24 10:19:14,0.0
2636,-312,18560,-143,149,-178,2024-01-24 10:19:14,0.0
2652,-244,18552,-170,180,-158,2024-01-24 10:19:14,0.0
2704,-224,18540,-153,165,-189,2024-01-24 10:19:14,0.0
2752,-208,18588,-173,151,-184,2024-01-24 10:19:14,0.0
2692,-212,18604,-189,165,-179,2024-01-24 10:19:14,0.0
2632,-276,18508,-154,174,-179,2024-01-24 10:19:14,0.0
2648,-232,18572,-177,179,-167,2024-01-24 10:19:14,0.0
2748,-168,18472,-135,167,-162,2024-01-24 10:19:14,0.0
2732,-188,18548,-168,173,-198,2024-01-24 10:19:14,0.0
2644,-188,18400,-168,167,-202,2024-01-24 10:19:14,0.0
2660,-188,18744,-167,152,-197,2024-01-24 10:19:14,0.0
2744,-272,18528,-172,162,-182,2024-01-24 10:19:14,0.0
2656,-216,18604,-185,168,-171,2024-01-24 10:19:14,0.0
2692,-224,18516,-181,158,-185,2024-01-24 10:19:14,0.0
2728,-216,18632,-133,182,-199,2024-01-24 10:19:14,0.0
2676,-240,18444,-149,162,-182,2024-01-24 10:19:14,0.0
2672,-176,18708,-173,183,-203,2024-01-24 10:19:14,0.0
2616,-176,18704,-170,174,-161,2024-01-24 10:19:14,0.0
2700,-200,18564,-164,167,-180,2024-01-24 10:19:14,0.0
2732,-204,18584,-166,164,-186,2024-01-24 10:19:14,0.0
2652,-200,18572,-186,164,-178,2024-01-24 10:19:14,0.0
2692,-292,18500,-153,165,-204,2024-01-24 10:19:14,0.0
2688,-228,18576,-181,163,-178,2024-01-24 10:19:14,0.0
2664,-256,18624,-202,197,-176,2024-01-24 10:19:14,0.0
2640,-212,18492,-185,182,-174,2024-01-24 10:19:14,0.0
2692,-180,18596,-163,147,-196,2024-01-24 10:19:14,0.0
2696,-208,18548,-174,155,-192,2024-01-24 10:19:14,0.0
2680,-168,18620,-166,155,-201,2024-01-24 10:19:14,0.0
2688,-336,18532,-177,179,-172,2024-01-24 10:19:14,0.0
2628,-260,18584,-156,153,-187,2024-01-24 10:19:14,0.0
2580,-180,18668,-170,185,-178,2024-01-24 10:19:14,0.0
2696,-216,18384,-182,174,-194,2024-01-24 10:19:14,0.0
2752,-208,18536,-177,192,-187,2024-01-24 10:19:14,0.0
2676,-220,18548,-182,162,-188,2024-01-24 10:19:14,0.0
2576,-356,18548,-153,144,-200,2024-01-24 10:19:14,0.0
2644,-216,18600,-173,165,-170,2024-01-24 10:19:14,0.0
2604,-260,18732,-154,159,-198,2024-01-24 10:19:14,0.0
2680,-160,18564,-164,183,-177,2024-01-24 10:19:14,0.0
2696,-128,18696,-177,201,-164,2024-01-24 10:19:14,0.0
2580,-176,18704,-190,153,-184,2024-01-24 10:19:14,0.0
2732,-252,18756,-174,176,-203,2024-01-24 10:19:14,0.0
2612,-276,18544,-144,181,-186,2024-01-24 10:19:14,0.0
2660,-208,18540,-129,171,-189,2024-01-24 10:19:14,0.0
2688,-332,18656,-154,165,-171,2024-01-24 10:19:14,0.0
2600,-212,18544,-164,165,-172,2024-01-24 10:19:14,0.0
2716,-184,18476,-155,168,-185,2024-01-24 10:19:14,0.0
2732,-200,18652,-197,178,-155,2024-01-24 10:19:14,0.0
2600,-128,18804,-150,150,-189,2024-01-24 10:19:14,0.0
2584,-200,18464,-158,168,-173,2024-01-24 10:19:14,0.0
2600,-152,18708,-179,172,-183,2024-01-24 10:19:14,0.0
2724,-232,18640,-133,163,-197,2024-01-24 10:19:14,0.0
2544,-212,18672,-149,161,-200,2024-01-24 10:19:14,0.0
2680,-244,18596,-149,140,-145,2024-01-24 10:19:14,0.0
2696,-272,18572,-158,158,-171,2024-01-24 10:19:14,0.0
2616,-272,18652,-148,150,-186,2024-01-24 10:19:14,0.0
2620,-260,18684,-174,154,-166,2024-01-24 10:19:14,0.0
2532,-276,18652,-139,151,-181,2024-01-24 10:19:15,0.0
2688,-288,18528,-155,161,-184,2024-01-24 10:19:15,0.0
2688,-236,18564,-123,173,-170,2024-01-24 10:19:15,0.0
2672,-216,18632,-169,155,-190,2024-01-24 10:19:15,
2636,-184,18620,-154,160,-197,2024-01-24 10:19:15,0.0
2728,-196,18596,-131,162,-163,2024-01-24 10:19:15,0.0
2668,-256,18492,-177,174,-173,2024-01-24 10:19:15,0.0
2704,-204,18508,-161,149,-160,2024-01-24 10:19:15,0.0
2728,-216,18432,-154,161,-161,2024-01-24 10:19:15,0.0
2580,-240,18680,-153,152,-193,2024-01-24 10:19:15,0.0
2644,-268,18532,-140,140,-185,2024-01-24 10:19:15,0.0
2648,-176,18512,-166,155,-168,2024-01-24 10:19:15,0.0
2636,-168,18508,-149,146,-196,2024-01-24 10:19:15,0.0
2632,-196,18460,-188,163,-189,2024-01-24 10:19:15,0.0
2628,-212,18576,-158,182,-182,2024-01-24 10:19:15,0.0
2632,-332,18508,-182,143,-182,2024-01-24 10:19:15,0.0
2712,-208,18704,-139,168,-164,2024-01-24 10:19:15,0.0
2644,-248,18640,-157,169,-197,2024-01-24 10:19:15,0.0
2584,-264,18624,-130,156,-181,2024-01-24 10:19:15,0.0
2612,-224,18584,-170,168,-188,2024-01-24 10:19:15,0.0
2580,-268,18660,-174,154,-187,2024-01-24 10:19:15,0.0
2696,-200,18548,-159,156,-172,2024-01-24 10:19:15,0.0
2688,-296,18612,-153,178,-187,2024-01-24 10:19:15,0.0
2632,-252,18596,-151,142,-170,2024-01-24 10:19:15,0.0
2636,-152,18596,-180,163,-186,2024-01-24 10:19:15,0.0
2608,-152,18532,-159,182,-173,2024-01-24 10:19:15,0.0
2620,-220,18680,-166,176,-192,2024-01-24 10:19:15,0.0
2592,-156,18512,-166,155,-183,2024-01-24 10:19:15,0.0
2588,-164,18560,-175,162,-164,2024-01-24 10:19:15,0.0
2652,-232,18692,-173,154,-155,2024-01-24 10:19:15,0.0
2644,-256,18548,-181,197,-194,2024-01-24 10:19:15,0.0
2756,-152,18616,-164,158,-178,2024-01-24 10:19:15,0.0
2808,-244,18508,-160,182,-185,2024-01-24 10:19:15,0.0
2608,-216,18584,-159,161,-204,2024-01-24 10:19:15,0.0
2800,-272,18532,-146,165,-159,2024-01-24 10:19:15,0.0
2692,-248,18544,-156,173,-179,2024-01-24 10:19:15,0.0
2640,-264,18500,-166,169,-173,2024-01-24 10:19:15,0.0
2632,-204,18588,-150,162,-190,2024-01-24 10:19:15,0.0
2640,-252,18580,-153,176,-178,2024-01-24 10:19:15,0.0
2672,-168,18532,-149,170,-170,2024-01-24 10:19:15,0.0
2624,-244,18656,-165,200,-182,2024-01-24 10:19:15,0.0
2628,-312,18504,-160,144,-190,2024-01-24 10:19:15,0.0
2728,-256,18652,-153,136,-175,2024-01-24 10:19:15,0.0
2628,-284,18600,-152,179,-190,2024-01-24 10:19:15,0.0
2704,-340,18644,-149,162,-180,2024-01-24 10:19:15,0.0
2680,-168,18556,-184,166,-173,2024-01-24 10:19:15,0.0
2580,-176,18544,-169,176,-174,2024-01-24 10:19:15,0.0
2748,-236,18620,-168,159,-178,2024-01-24 10:19:15,0.0
2548,-220,18592,-184,203,-181,2024-01-24 10:19:15,0.0
2604,-300,18588,-159,160,-170,2024-01-24 10:19:15,0.0
2612,-256,18692,-186,166,-173,2024-01-24 10:19:15,0.0
2672,-116,18692,-144,175,-171,2024-01-24 10:19:15,0.0
2644,-220,18552,-164,164,-190,2024-01-24 10:19:15,0.0
2604,-280,18596,-171,179,-195,2024-01-24 10:19:15,0.0
2632,-240,18560,-163,173,-162,2024-01-24 10:19:15,0.0
2632,-312,18576,-194,183,-163,2024-01-24 10:19:15,0.0
2720,-292,18596,-177,159,-182,2024-01-24 10:19:15,0.0
2732,-304,18596,-132,179,-164,2024-01-24 10:19:15,0.0
2636,-292,18588,-176,190,-184,2024-01-24 10:19:15,0.0
2652,-180,18612,-160,188,-182,2024-01-24 10:19:15,0.0
2656,-144,18660,-162,162,-171,2024-01-24 10:19:15,0.0
2668,-192,18468,-189,158,-171,2024-01-24 10:19:15,0.0
2644,-136,18624,-173,194,-161,2024-01-24 10:19:16,0.0
2704,-200,18704,-138,183,-162,2024-01-24 10:19:16,0.0
2696,-240,18732,-151,158,-183,2024-01-24 10:19:16,0.0
2628,-144,18624,-157,187,-188,2024-01-24 10:19:16,0.0
2624,-188,18548,-158,184,-183,2024-01-24 10:19:16,0.0
2720,-220,18540,-187,152,-180,2024-01-24 10:19:16,0.0
2712,-276,18588,-166,164,-146,2024-01-24 10:19:16,0.0
2580,-236,18488,-200,175,-174,2024-01-24 10:19:16,0.0
2644,-228,18636,-183,163,-179,2024-01-24 10:19:16,0.0
2716,-220,18612,-159,163,-185,2024-01-24 10:19:16,0.0
2656,-168,18560,-156,180,-171,2024-01-24 10:19:16,0.0
2676,-280,18500,-169,167,-156,2024-01-24 10:19:16,0.0
2668,-304,18544,-184,170,-173,2024-01-24 10:19:16,0.0
2776,-304,18668,-182,158,-172,2024-01-24 10:19:16,0.0
2824,-308,18680,-172,160,-172,2024-01-24 10:19:16,0.0
2708,-300,18584,-174,146,-200,2024-01-24 10:19:16,0.0
2776,-300,18564,-138,147,-195,2024-01-24 10:19:16,0.0
2672,-264,18452,-176,195,-192,2024-01-24 10:19:16,0.0
2556,-292,18560,-187,161,-148,2024-01-24 10:19:16,0.0
2532,-168,18640,-181,166,-196,2024-01-24 10:19:16,0.0
2696,-156,18620,-177,171,-180,2024-01-24 10:19:16,0.0
2684,-152,18596,-169,171,-181,2024-01-24 10:19:16,0.0
2672,-248,18616,-151,170,-180,2024-01-24 10:19:16,0.0
2572,-236,18512,-156,148,-164,2024-01-24 10:19:16,0.0
2684,-328,18640,-153,173,-187,2024-01-24 10:19:16,0.0
2684,-232,18660,-159,153,-159,2024-01-24 10:19:16,0.0
2768,-224,18568,-172,137,-201,2024-01-24 10:19:16,0.0
2660,-236,18612,-151,181,-178,2024-01-24 10:19:16,0.0
2844,-260,18484,-165,159,-194,2024-01-24 10:19:16,0.0
2620,-248,18652,-160,173,-200,2024-01-24 10:19:16,0.0
2604,-232,18612,-158,161,-175,2024-01-24 10:19:16,0.0
2648,-284,18660,-177,155,-173,2024-01-24 10:19:16,0.0
2628,-128,18568,-114,148,-197,2024-01-24 10:19:16,0.0
2728,-260,18620,-176,149,-190,2024-01-24 10:19:16,0.0
2628,-208,18624,-155,184,-166,2024-01-24 10:19:16,0.0
2616,-204,18600,-153,171,-189,2024-01-24 10:19:16,0.0
2600,-176,18488,-181,163,-194,2024-01-24 10:19:16,0.0
2728,-260,18576,-159,152,-175,2024-01-24 10:19:16,0.0
2644,-216,18388,-151,176,-168,2024-01-24 10:19:16,0.0
3644,-36,17296,-171,188,-171,2024-01-24 10:19:16,0.0
3460,-104,18160,-148,163,-157,2024-01-24 10:19:16,0.0
3432,128,17844,-112,-38,-154,2024-01-24 10:19:16,
404,-524,19800,-155,236,-213,2024-01-24 10:19:16,0.0
2856,-148,18384,-156,208,-184,2024-01-24 10:19:16,0.0
2580,-320,18804,-191,133,-179,2024-01-24 10:19:16,0.0
2800,-372,18584,-131,159,-167,2024-01-24 10:19:16,0.0
2584,-332,18500,-134,184,-184,2024-01-24 10:19:16,0.0
3000,-184,18500,-176,194,-167,2024-01-24 10:19:16,0.0
2460,-120,18564,-151,144,-208,2024-01-24 10:19:16,0.0
2600,-188,18672,-173,194,-157,2024-01-24 10:19:16,0.0
2748,-256,18384,-142,198,-166,2024-01-24 10:19:16,0.0
2688,-312,18388,-167,181,-178,2024-01-24 10:19:16,0.0
2568,-196,18556,-149,160,-173,2024-01-24 10:19:16,0.0
2748,-140,18584,-170,164,-160,2024-01-24 10:19:16,0.0
2740,-244,18628,-187,159,-179,2024-01-24 10:19:16,0.0
2756,-244,18548,-172,189,-173,2024-01-24 10:19:16,0.0
2740,-340,18716,-160,151,-179,2024-01-24 10:19:16,0.0
2708,-272,18504,-162,174,-185,2024-01-24 10:19:16,0.0
2664,-88,18596,-205,152,-181,2024-01-24 10:19:16,0.0
2640,-20,18556,-184,184,-187,2024-01-24 10:19:17,0.0
2604,-216,18560,-177,189,-173,2024-01-24 10:19:17,0.0
2612,-240,18584,-189,180,-170,2024-01-24 10:19:17,0.0
2576,-152,18384,-190,173,-172,2024-01-24 10:19:17,0.0
2608,-220,18556,-181,148,-165,2024-01-24 10:19:17,0.0
2636,-180,18584,-174,177,-209,2024-01-24 10:19:17,0.0
2776,-312,18716,-190,182,-177,2024-01-24 10:19:17,0.0
2664,-200,18512,-173,172,-207,2024-01-24 10:19:17,0.0
2772,-300,18520,-179,153,-159,2024-01-24 10:19:17,0.0
2640,-184,18416,-157,151,-189,2024-01-24 10:19:17,0.0
2540,-188,18516,-204,198,-196,2024-01-24 10:19:17,0.0
2452,-236,19364,-257,154,-170,2024-01-24 10:19:17,0.0
2560,-168,19112,-138,173,-151,2024-01-24 10:19:17,0.0
2628,8,18600,-204,144,-166,2024-01-24 10:19:17,0.0
2644,-168,18320,-147,180,-187,2024-01-24 10:19:17,0.0
2692,-284,18324,-174,177,-170,2024-01-24 10:19:17,0.0
2576,-284,18876,-193,170,-180,2024-01-24 10:19:17,0.0
2780,-332,18668,-142,137,-187,2024-01-24 10:19:17,0.0
2744,-200,18444,-155,174,-181,2024-01-24 10:19:17,0.0
2632,-176,18512,-157,171,-182,2024-01-24 10:19:17,0.0
2616,-208,18508,-159,166,-183,2024-01-24 10:19:17,0.0
2612,-344,18484,-161,179,-187,2024-01-24 10:19:17,0.0
2660,-276,18004,-155,193,-159,2024-01-24 10:19:17,0.0
2852,-156,18972,-193,212,-184,2024-01-24 10:19:17,0.0
2860,-300,18552,-168,136,-189,2024-01-24 10:19:17,0.0
2852,-264,18520,-159,178,-169,2024-01-24 10:19:17,0.0
2844,-260,18636,-168,159,-159,2024-01-24 10:19:17,0.0
2644,-332,18444,-191,188,-177,2024-01-24 10:19:17,0.0
2756,-288,18568,-174,162,-198,2024-01-24 10:19:17,0.0
2656,-260,18516,-199,160,-174,2024-01-24 10:19:17,0.0
2780,-300,18508,-143,177,-185,2024-01-24 10:19:17,0.0
2568,-148,18552,-164,174,-181,2024-01-24 10:19:17,0.0
2580,-216,18668,-174,178,-189,2024-01-24 10:19:17,0.0
2592,-160,18536,-169,186,-198,2024-01-24 10:19:17,0.0
2604,-252,18652,-177,164,-197,2024-01-24 10:19:17,0.0
2708,-188,18564,-138,170,-161,2024-01-24 10:19:17,0.0
3120,-116,17960,-188,185,-170,2024-01-24 10:19:17,0.0
2600,-176,18968,-184,157,-182,2024-01-24 10:19:17,0.0
2448,-324,19096,-152,207,-193,2024-01-24 10:19:17,0.0
2752,-268,18532,-144,137,-186,2024-01-24 10:19:17,0.0
2444,-220,18744,-165,166,-170,2024-01-24 10:19:17,0.0
2636,-132,18640,-142,149,-189,2024-01-24 10:19:17,0.0
2476,-348,18232,-189,168,-170,2024-01-24 10:19:17,0.0
2452,-264,18356,-155,210,-171,2024-01-24 10:19:17,0.0
2552,-176,18660,-174,181,-165,2024-01-24 10:19:17,0.0
2620,-272,18592,-186,161,-180,2024-01-24 10:19:17,0.0
2568,-256,18700,-152,133,-195,2024-01-24 10:19:17,0.0
2712,-224,18552,-166,176,-184,2024-01-24 10:19:17,0.0
2412,-232,17972,-177,232,-198,2024-01-24 10:19:17,0.0
1660,-220,19416,-133,98,-178,2024-01-24 10:19:17,0.0
2676,-152,19120,-182,132,-180,2024-01-24 10:19:17,0.0
2560,-328,18808,-184,174,-161,2024-01-24 10:19:17,0.0
2640,-224,18500,-156,151,-188,2024-01-24 10:19:17,0.0
2416,-148,18696,-162,132,-181,2024-01-24 10:19:17,0.0
2696,-76,18556,-176,169,-158,2024-01-24 10:19:17,0.0
2668,-128,18328,-147,181,-171,2024-01-24 10:19:17,0.0
2608,-296,18748,-185,175,-173,2024-01-24 10:19:17,0.0
2584,-212,18712,-159,156,-186,2024-01-24 10:19:17,0.0
2776,-276,18452,-171,166,-186,2024-01-24 10:19:17,0.0
2700,-268,18632,-131,134,-197,2024-01-24 10:19:17,0.0
2744,-208,18444,-182,169,-179,2024-01-24 10:19:17,0.0
2584,-212,18320,-172,181,-188,2024-01-24 10:19:18,0.0
2552,-272,18728,-131,176,-172,2024-01-24 10:19:18,0.0
2588,-260,18552,-196,171,-170,2024-01-24 10:19:18,0.0
2612,-200,18484,-156,170,-166,2024-01-24 10:19:18,0.0
2724,-180,18652,-185,166,-189,2024-01-24 10:19:18,0.0
2728,-324,18496,-156,185,-211,2024-01-24 10:19:18,0.0
2648,-312,18532,-181,170,-180,2024-01-24 10:19:18,0.0
2784,-232,18444,-173,168,-177,2024-01-24 10:19:18,0.0
2636,-192,18712,-155,145,-191,2024-01-24 10:19:18,0.0
2744,-180,18488,-191,191,-188,2024-01-24 10:19:18,0.0
2676,-208,18624,-173,150,-185,2024-01-24 10:19:18,0.0
2716,-208,18496,-165,158,-189,2024-01-24 10:19:18,0.0
2560,-196,18592,-150,160,-182,2024-01-24 10:19:18,0.0
2508,-244,18672,-170,153,-161,2024-01-24 10:19:18,0.0
2612,-196,18612,-188,167,-185,2024-01-24 10:19:18,0.0
2576,-108,18400,-176,163,-178,2024-01-24 10:19:18,0.0
2600,-288,18548,-155,158,-172,2024-01-24 10:19:18,0.0
2548,-228,18780,-180,175,-167,2024-01-24 10:19:18,0.0
2652,-288,18456,-168,148,-177,2024-01-24 10:19:18,0.0
2732,-264,18640,-176,171,-165,2024-01-24 10:19:18,0.0
2676,-220,18700,-175,174,-184,2024-01-24 10:19:18,0.0
2852,-184,18512,-142,187,-163,2024-01-24 10:19:18,
2600,-292,18812,-165,172,-179,2024-01-24 10:19:18,0.0
2684,-268,18404,-150,182,-193,2024-01-24 10:19:18,0.0
2540,-264,18772,-154,163,-196,2024-01-24 10:19:18,0.0
2744,-232,18524,-149,214,-184,2024-01-24 10:19:18,0.0
2744,-188,18412,-170,165,-176,2024-01-24 10:19:18,0.0
2688,-248,18728,-142,165,-186,2024-01-24 10:19:18,0.0
2568,-212,18596,-183,151,-157,2024-01-24 10:19:18,0.0
2620,-276,18628,-155,182,-188,2024-01-24 10:19:18,0.0
2612,-368,18568,-165,162,-179,2024-01-24 10:19:18,0.0
2628,-164,18676,-165,147,-177,2024-01-24 10:19:18,0.0
2640,-132,18688,-163,195,-171,2024-01-24 10:19:18,0.0
2724,-184,18716,-164,146,-168,2024-01-24 10:19:18,0.0
2612,-276,18608,-163,147,-167,2024-01-24 10:19:18,0.0
2560,-272,18784,-172,147,-162,2024-01-24 10:19:18,0.0
2580,-148,18668,-154,167,-169,2024-01-24 10:19:18,0.0
2624,-208,18584,-172,157,-187,2024-01-24 10:19:18,0.0
2724,-276,18608,-151,194,-184,2024-01-24 10:19:18,0.0
2620,-316,18704,-192,142,-166,2024-01-24 10:19:18,0.0
2736,-284,18652,-141,171,-182,2024-01-24 10:19:18,0.0
2672,-200,18620,-161,135,-169,2024-01-24 10:19:18,0.0
2832,-244,18472,-164,157,-155,2024-01-24 10:19:18,0.0
2788,-212,18596,-159,210,-191,2024-01-24 10:19:18,0.0
2548,-208,18720,-188,151,-163,2024-01-24 10:19:18,0.0
2580,-264,18548,-186,165,-190,2024-01-24 10:19:18,0.0
2584,-132,18692,-168,162,-198,2024-01-24 10:19:18,0.0
2844,-124,18568,-151,147,-187,2024-01-24 10:19:18,0.0
2752,-192,18616,-157,179,-181,2024-01-24 10:19:18,0.0
2756,-216,18628,-169,168,-179,2024-01-24 10:19:18,0.0
2604,-208,18680,-174,173,-189,2024-01-24 10:19:18,0.0
2696,-236,18572,-155,166,-212,2024-01-24 10:19:18,0.0
2620,-168,18608,-167,165,-183,2024-01-24 10:19:18,0.0
2716,-276,18560,-163,175,-203,2024-01-24 10:19:18,0.0
2600,-112,18692,-175,183,-159,2024-01-24 10:19:18,0.0
2616,-148,18532,-155,182,-147,2024-01-24 10:19:18,0.0
2564,-260,18608,-178,148,-190,2024-01-24 10:19:18,0.0
2676,-284,18584,-128,194,-183,2024-01-24 10:19:18,0.0
2828,-208,18576,-152,185,-172,2024-01-24 10:19:18,0.0
2732,-256,18516,-182,164,-195,2024-01-24 10:19:18,0.0
2768,-260,18536,-164,185,-180,2024-01-24 10:19:18,0.0
2692,-284,18616,-176,148,-190,2024-01-24 10:19:19,0.0
2656,-260,18672,-154,174,-195,2024-01-24 10:19:19,0.0
2608,-248,18556,-178,166,-177,2024-01-24 10:19:19,0.0
2500,-184,18484,-196,176,-190,2024-01-24 10:19:19,0.0
2560,-140,18632,-172,166,-186,2024-01-24 10:19:19,0.0
2652,-108,18584,-145,169,-174,2024-01-24 10:19:19,0.0
2712,-252,18528,-172,139,-184,2024-01-24 10:19:19,0.0
2764,-324,18608,-167,179,-190,2024-01-24 10:19:19,0.0
2772,-348,18380,-199,141,-172,2024-01-24 10:19:19,0.0
2832,-292,18532,-155,178,-177,2024-01-24 10:19:19,0.0
2696,-268,18760,-178,134,-173,2024-01-24 10:19:19,0.0
2656,-200,18428,-173,157,-204,2024-01-24 10:19:19,0.0
2464,-208,18580,-161,164,-186,2024-01-24 10:19:19,0.0
2600,-280,18480,-156,160,-166,2024-01-24 10:19:19,0.0
2556,-228,18664,-178,148,-160,2024-01-24 10:19:19,0.0
2664,-252,18548,-168,155,-190,2024-01-24 10:19:19,0.0
2668,-276,18356,-155,143,-169,2024-01-24 10:19:19,0.0
2732,-280,18392,-154,160,-215,2024-01-24 10:19:19,0.0
2632,-320,18556,-157,161,-189,2024-01-24 10:19:19,0.0
2732,-324,18468,-177,178,-182,2024-01-24 10:19:19,0.0
2748,-268,18740,-171,156,-194,2024-01-24 10:19:19,0.0
2608,-160,18576,-165,177,-169,2024-01-24 10:19:19,0.0
2680,-144,18580,-182,169,-165,2024-01-24 10:19:19,0.0
2716,-144,18484,-160,148,-203,2024-01-24 10:19:19,0.0
2520,-236,18612,-160,162,-182,2024-01-24 10:19:19,0.0
2716,-276,18768,-163,184,-176,2024-01-24 10:19:19,0.0
2620,-408,18568,-188,168,-179,2024-01-24 10:19:19,0.0
2688,-324,18492,-163,157,-168,2024-01-24 10:19:19,0.0
2792,-352,18576,-191,162,-188,2024-01-24 10:19:19,0.0
2684,-288,18476,-136,182,-172,2024-01-24 10:19:19,0.0
2596,-184,18516,-160,163,-165,2024-01-24 10:19:19,0.0
2592,-164,18164,-158,169,-168,2024-01-24 10:19:19,0.0
2736,-96,18432,-168,165,-168,2024-01-24 10:19:19,0.0
2648,-260,18552,-207,164,-159,2024-01-24 10:19:19,0.0
2684,-296,18820,-172,152,-150,2024-01-24 10:19:19,0.0
2644,-252,18632,-179,160,-157,2024-01-24 10:19:19,0.0
2616,-336,18472,-194,173,-181,2024-01-24 10:19:19,0.0
2680,-320,18624,-158,153,-174,2024-01-24 10:19:19,0.0
2732,-216,18508,-158,138,-189,2024-01-24 10:19:19,0.0
2632,-264,18524,-164,165,-184,2024-01-24 10:19:19,0.0
2600,-272,18624,-160,164,-197,2024-01-24 10:19:19,0.0
2704,-252,18708,-163,147,-179,2024-01-24 10:19:19,0.0
2680,-112,18664,-150,169,-180,2024-01-24 10:19:19,0.0
2516,-116,18516,-172,193,-170,2024-01-24 10:19:19,0.0
2636,-128,18656,-181,188,-175,2024-01-24 10:19:19,0.0
2596,-204,18496,-175,173,-197,2024-01-24 10:19:19,0.0
2724,-372,18680,-168,177,-164,2024-01-24 10:19:19,0.0
2768,-236,18532,-171,166,-171,2024-01-24 10:19:19,0.0
2816,-240,18624,-190,176,-177,2024-01-24 10:19:19,0.0
2744,-156,18596,-167,147,-192,2024-01-24 10:19:19,0.0
2748,-228,18512,-168,182,-159,2024-01-24 10:19:19,0.0
2536,-240,18632,-179,152,-188,2024-01-24 10:19:19,0.0
2552,-236,18652,-169,156,-191,2024-01-24 10:19:19,0.0
2540,-204,18640,-168,181,-180,2024-01-24 10:19:19,0.0
2696,-200,18492,-161,159,-185,2024-01-24 10:19:19,0.0
2696,-264,18588,-161,165,-174,2024-01-24 10:19:19,0.0
2728,-260,18456,-156,172,-175,2024-01-24 10:19:19,0.0
2688,-280,18704,-148,167,-172,2024-01-24 10:19:19,0.0
2776,-216,18560,-160,159,-160,2024-01-24 10:19:19,0.0
2748,-196,18472,-143,184,-175,2024-01-24 10:19:19,0.0
2704,-184,18560,-153,160,-172,2024-01-24 10:19:19,
2596,-272,18560,-158,162,-174,2024-01-24 10:19:20,0.0
2636,-252,18688,-178,171,-190,2024-01-24 10:19:20,0.0
2480,-208,18764,-171,152,-169,2024-01-24 10:19:20,0.0
2584,-184,18484,-157,168,-170,2024-01-24 10:19:20,0.0
2592,-304,18616,-168,175,-192,2024-01-24 10:19:20,0.0
2680,-252,18568,-183,170,-181,2024-01-24 10:19:20,0.0
2636,-244,18400,-158,175,-188,2024-01-24 10:19:20,0.0
2580,-256,18600,-183,177,-187,2024-01-24 10:19:20,0.0
2700,-168,18488,-183,159,-149,2024-01-24 10:19:20,0.0
2776,-292,18528,-159,163,-184,2024-01-24 10:19:20,0.0
2712,-236,18644,-173,169,-198,2024-01-24 10:19:20,0.0
2608,-232,18628,-186,183,-171,2024-01-24 10:19:20,0.0
2600,-292,18508,-162,160,-172,2024-01-24 10:19:20,0.0
2680,-256,18428,-176,203,-181,2024-01-24 10:19:20,0.0
2636,-152,18540,-147,157,-185,2024-01-24 10:19:20,0.0
2688,-128,18568,-156,201,-187,2024-01-24 10:19:20,0.0
2716,-276,18612,-200,181,-174,2024-01-24 10:19:20,0.0
2672,-276,18580,-137,170,-172,2024-01-24 10:19:20,0.0
2748,-312,18400,-167,163,-185,2024-01-24 10:19:20,0.0
2660,-240,18552,-194,162,-190,2024-01-24 10:19:20,0.0
2724,-104,18496,-154,163,-171,2024-01-24 10:19:20,0.0
2800,-52,18616,-137,168,-198,2024-01-24 10:19:20,0.0
2652,-212,18648,-159,145,-155,2024-01-24 10:19:20,0.0
2512,-188,18660,-159,150,-195,2024-01-24 10:19:20,0.0
2484,-264,18568,-166,153,-196,2024-01-24 10:19:20,0.0
2668,-308,18540,-171,159,-170,2024-01-24 10:19:20,0.0
2684,-208,18408,-169,204,-164,2024-01-24 10:19:20,0.0
2704,-240,18372,-182,175,-177,2024-01-24 10:19:20,0.0
2528,-228,18596,-182,146,-179,2024-01-24 10:19:20,0.0
2696,-268,18748,-173,153,-171,2024-01-24 10:19:20,0.0
2604,-308,18564,-167,177,-172,2024-01-24 10:19:20,0.0
2668,-204,18636,-174,153,-186,2024-01-24 10:19:20,0.0
2692,-116,18572,-148,165,-185,2024-01-24 10:19:20,0.0
2588,-140,18472,-169,186,-172,2024-01-24 10:19:20,0.0
2508,-176,18616,-154,161,-196,2024-01-24 10:19:20,0.0
2524,-292,18560,-175,158,-177,2024-01-24 10:19:20,0.0
2676,-324,18508,-159,147,-170,2024-01-24 10:19:20,0.0
2664,-188,18636,-173,186,-182,2024-01-24 10:19:20,0.0
2668,-196,18728,-199,163,-182,2024-01-24 10:19:20,0.0
2760,-252,18688,-170,193,-166,2024-01-24 10:19:20,0.0
2660,-380,18496,-165,169,-172,2024-01-24 10:19:20,0.0
2732,-236,18588,-175,175,-156,2024-01-24 10:19:20,0.0
2604,-272,18604,-153,184,-186,2024-01-24 10:19:20,0.0
2560,-304,18676,-158,178,-185,2024-01-24 10:19:20,0.0
2648,-264,18572,-186,169,-183,2024-01-24 10:19:20,0.0
2636,-124,18544,-176,171,-183,2024-01-24 10:19:20,0.0
2532,-248,18584,-191,158,-174,2024-01-24 10:19:20,0.0
2688,-244,18640,-176,185,-188,2024-01-24 10:19:20,0.0
2644,-112,18688,-156,159,-196,2024-01-24 10:19:20,0.0
2748,-228,18668,-160,190,-185,2024-01-24 10:19:20,0.0
2772,-216,18392,-175,175,-184,2024-01-24 10:19:20,0.0
2596,-284,18684,-153,166,-169,2024-01-24 10:19:20,0.0
2576,-192,18604,-156,163,-185,2024-01-24 10:19:20,0.0
2584,-188,18784,-146,158,-156,2024-01-24 10:19:20,0.0
2680,-188,18628,-175,191,-178,2024-01-24 10:19:20,0.0
2572,-176,18464,-151,150,-178,2024-01-24 10:19:20,0.0
2728,-232,18560,-184,173,-187,2024-01-24 10:19:20,0.0
2724,-300,18596,-177,178,-173,2024-01-24 10:19:20,0.0
2700,-256,18592,-171,171,-199,2024-01-24 10:19:20,0.0
2740,-188,18540,-188,149,-187,2024-01-24 10:19:20,0.0
2672,-268,18668,-181,152,-172,2024-01-24 10:19:20,0.0
2608,-236,18628,-184,179,-153,2024-01-24 10:19:21,0.0
2596,-208,18604,-181,180,-185,2024-01-24 10:19:21,0.0
2608,-256,18576,-149,154,-184,2024-01-24 10:19:21,0.0
2644,-140,18540,-185,178,-168,2024-01-24 10:19:21,0.0
2632,-216,18520,-159,159,-192,2024-01-24 10:19:21,0.0
2656,-232,18672,-188,171,-184,2024-01-24 10:19:21,0.0
2752,-232,18648,-170,164,-196,2024-01-24 10:19:21,0.0
2600,-340,18584,-186,156,-164,2024-01-24 10:19:21,0.0
2684,-360,18536,-171,154,-144,2024-01-24 10:19:21,0.0
2776,-292,18664,-147,169,-160,2024-01-24 10:19:21,0.0
2724,-240,18656,-164,178,-185,2024-01-24 10:19:21,0.0
2636,-280,18520,-182,154,-209,2024-01-24 10:19:21,0.0
2684,-216,18648,-150,160,-160,2024-01-24 10:19:21,0.0
2664,-284,18620,-163,161,-200,2024-01-24 10:19:21,0.0
2632,-176,18560,-156,168,-165,2024-01-24 10:19:21,0.0
2752,-220,18520,-190,183,-194,2024-01-24 10:19:21,0.0
2644,-192,18468,-162,173,-181,2024-01-24 10:19:21,0.0
2648,-140,18624,-172,157,-151,2024-01-24 10:19:21,0.0
2640,-236,18584,-193,158,-188,2024-01-24 10:19:21,0.0
2736,-328,18436,-168,160,-207,2024-01-24 10:19:21,0.0
2788,-400,18564,-162,175,-185,2024-01-24 10:19:21,0.0
2792,-228,18652,-171,177,-162,2024-01-24 10:19:21,0.0
2736,-144,18628,-167,159,-183,2024-01-24 10:19:21,0.0
2616,-124,18612,-143,170,-198,2024-01-24 10:19:21,0.0
2616,-268,18512,-134,145,-200,2024-01-24 10:19:21,0.0
2544,-300,18608,-190,166,-202,2024-01-24 10:19:21,0.0
2544,-192,18780,-168,186,-185,2024-01-24 10:19:21,0.0
2716,-188,18664,-160,178,-202,2024-01-24 10:19:21,0.0
2672,-108,18616,-187,167,-176,2024-01-24 10:19:21,0.0
2732,-192,18540,-136,181,-177,2024-01-24 10:19:21,0.0
2644,-232,18704,-175,158,-156,2024-01-24 10:19:21,0.0
2652,-312,18652,-156,177,-173,2024-01-24 10:19:21,0.0
2672,-152,18596,-136,172,-184,2024-01-24 10:19:21,0.0
2740,-200,18612,-147,148,-193,2024-01-24 10:19:21,0.0
2644,-188,18488,-165,177,-169,2024-01-24 10:19:21,0.0
2636,-320,18628,-161,189,-190,2024-01-24 10:19:21,0.0
2568,-356,18592,-173,179,-185,2024-01-24 10:19:21,0.0
2680,-252,18528,-153,158,-184,2024-01-24 10:19:21,0.0
2656,-244,18548,-179,180,-198,2024-01-24 10:19:21,
2756,-100,18552,-150,177,-164,2024-01-24 10:19:21,0.0
2732,-136,18632,-184,149,-163,2024-01-24 10:19:21,0.0
2716,-252,18620,-162,165,-197,2024-01-24 10:19:21,0.0
2636,-200,18576,-170,155,-202,2024-01-24 10:19:21,0.0
2692,-148,18532,-167,179,-174,2024-01-24 10:19:21,0.0
2640,-240,18616,-145,172,-181,2024-01-24 10:19:21,0.0
2580,-216,18572,-155,164,-165,2024-01-24 10:19:21,0.0
2652,-228,18836,-184,188,-176,2024-01-24 10:19:21,0.0
2644,-256,18684,-179,155,-203,2024-01-24 10:19:21,0.0
2612,-300,18628,-177,184,-164,2024-01-24 10:19:21,0.0
2688,-276,18584,-171,153,-184,2024-01-24 10:19:21,0.0
2792,-192,18448,-153,169,-184,2024-01-24 10:19:21,0.0
2648,-216,18596,-174,156,-145,2024-01-24 10:19:21,0.0
2608,-312,18552,-176,167,-159,2024-01-24 10:19:21,0.0
2724,-312,18640,-179,155,-190,2024-01-24 10:19:21,0.0
2528,-264,18576,-132,180,-167,2024-01-24 10:19:21,0.0
2568,-188,18412,-165,173,-196,2024-01-24 10:19:21,0.0
2760,-200,18584,-145,163,-177,2024-01-24 10:19:21,0.0
2672,-256,18532,-175,172,-147,2024-01-24 10:19:21,0.0
2756,-272,18456,-173,166,-197,2024-01-24 10:19:21,0.0
2664,-292,18544,-177,170,-193,2024-01-24 10:19:21,0.0
2804,-268,18648,-168,156,-146,2024-01-24 10:19:21,0.0
2728,-208,18568,-176,177,-171,2024-01-24 10:19:22,0.0
2680,-236,18540,-183,162,-188,2024-01-24 10:19:22,0.0
2664,-364,18568,-161,188,-197,2024-01-24 10:19:22,0.0
2740,-228,18620,-185,142,-172,2024-01-24 10:19:22,0.0
2608,-300,18544,-148,189,-170,2024-01-24 10:19:22,0.0
2580,-184,18608,-150,157,-183,2024-01-24 10:19:22,0.0
2740,-220,18484,-157,181,-178,2024-01-24 10:19:22,0.0
2788,-228,18532,-164,177,-173,2024-01-24 10:19:22,0.0
2712,-220,18488,-139,166,-174,2024-01-24 10:19:22,0.0
2632,-240,18632,-144,176,-169,2024-01-24 10:19:22,0.0
2716,-308,18672,-191,167,-182,2024-01-24 10:19:22,0.0
2740,-264,18504,-166,145,-168,2024-01-24 10:19:22,0.0
2736,-208,18564,-166,183,-181,2024-01-24 10:19:22,0.0
3080,-596,20508,630,1072,-184,2024-01-24 10:19:22,0.0
2452,-192,19264,-1112,-876,-157,2024-01-24 10:19:22,0.0
2452,-40,17956,-43,316,-193,2024-01-24 10:19:22,0.0
3048,1044,21520,995,1396,-1671,2024-01-24 10:19:22,0.0
4996,1988,19836,26,333,-4445,2024-01-24 10:19:22,0.0
3100,-96,16820,-936,-492,-7457,2024-01-24 10:19:22,0.0
1968,-8,20204,-441,-295,-343,2024-01-24 10:19:22,0.0
-1732,-3592,18424,-254,46,292,2024-01-24 10:19:22,0.0
-3176,-484,17860,-1099,-980,-601,2024-01-24 10:19:22,0.0
-9528,3872,27612,-5253,5715,6193,2024-01-24 10:19:22,0.0
-8844,1776,29968,-11471,4591,13862,2024-01-24 10:19:22,0.0
-3452,-7152,22864,-13427,6469,14620,2024-01-24 10:19:22,0.0
-3848,-7684,31876,-3135,935,11870,2024-01-24 10:19:22,0.0
-12816,-2064,28408,4794,-3593,15502,2024-01-24 10:19:22,0.0
-17096,-292,24668,4197,-16525,22523,2024-01-24 10:19:22,0.0
-6296,-2232,23108,2175,-22109,28132,2024-01-24 10:19:22,0.0
10356,-3908,23756,5449,-15110,25598,2024-01-24 10:19:22,0.0
15764,-3896,23292,7845,-5756,14985,2024-01-24 10:19:22,0.0
7636,-2416,22108,9191,-660,6831,2024-01-24 10:19:22,0.0
-2292,-460,19616,9601,375,6627,2024-01-24 10:19:22,0.0
-7892,-132,16380,9166,-51,12953,2024-01-24 10:19:22,0.0
-5660,-160,14540,9336,3430,18727,2024-01-24 10:19:22,0.0
-708,-1360,11676,9333,7263,22177,2024-01-24 10:19:22,0.0
4628,-2536,7104,7798,10755,22271,2024-01-24 10:19:22,0.0
3992,-2752,3292,2157,11107,20833,2024-01-24 10:19:22,0.0
-4932,-2372,4808,-6514,3088,23596,2024-01-24 10:19:22,0.0
-676,-4380,3348,-13677,-5396,28490,2024-01-24 10:19:22,0.0
8444,-5940,7252,-17975,-8499,29595,2024-01-24 10:19:22,0.0
19016,-5812,9720,-20485,-8558,24715,2024-01-24 10:19:22,0.0
22720,-6956,14536,-20181,-6682,15791,2024-01-24 10:19:22,0.0
20872,-7940,14284,-18910,-7493,9003,2024-01-24 10:19:22,0.0
15840,-7152,11868,-20742,-7929,3174,2024-01-24 10:19:22,0.0
12004,-7176,13708,-23725,-9084,963,2024-01-24 10:19:22,0.0
9728,-12728,32767,-16896,-9656,-108,2024-01-24 10:19:22,0.0
12556,-4044,30296,-2350,-2153,-311,2024-01-24 10:19:22,0.0
8180,-6728,27924,1234,1634,-3180,2024-01-24 10:19:22,0.0
15324,-7084,3396,-1457,1896,-5166,2024-01-24 10:19:22,0.0
7852,-12396,-9016,-17571,-5506,-7165,2024-01-24 10:19:22,0.0
5096,-10388,2984,-23336,-13576,-3325,2024-01-24 10:19:22,0.0
7624,-8100,-744,-28353,-13216,-2056,2024-01-24 10:19:22,0.0
5432,-7040,20444,-27360,-10729,-26,2024-01-24 10:19:22,0.0
-7080,-9816,32767,10391,17877,-5520,2024-01-24 10:19:22,0.0
-472,-7296,26816,5009,2116,994,2024-01-24 10:19:22,0.0
7652,-7696,17552,3891,1110,3559,2024-01-24 10:19:22,0.0
10320,-10116,10696,4665,6030,2121,2024-01-24 10:19:22,0.0
10572,-7660,15532,5398,9413,-963,2024-01-24 10:19:22,0.0
2304,-5952,18520,4493,6233,-1298,2024-01-24 10:19:22,0.0
1340,-5604,19644,2755,2568,-28,2024-01-24 10:19:22,0.0
2096,-5432,19808,794,405,1453,2024-01-24 10:19:23,0.0
2640,-6220,18076,121,-459,2858,2024-01-24 10:19:23,0.0
4328,-5808,15860,305,-299,3977,2024-01-24 10:19:23,0.0
5316,-6960,16332,956,2573,4053,2024-01-24 10:19:23,0.0
6028,-6368,17608,2069,2080,4611,2024-01-24 10:19:23,0.0
3632,-4956,19876,2006,-2628,4837,2024-01-24 10:19:23,0.0
6072,-4448,19468,1217,-8143,5121,2024-01-24 10:19:23,0.0
8748,-4732,17928,265,-9962,3939,2024-01-24 10:19:23,0.0
13400,-5084,14764,-883,-6664,-673,2024-01-24 10:19:23,0.0
11084,-4388,15528,-1648,-286,-6206,2024-01-24 10:19:23,0.0
2968,-3932,18576,-571,1363,-7412,2024-01-24 10:19:23,0.0
780,-4044,18788,702,568,-5818,2024-01-24 10:19:23,0.0
2592,-3924,17808,1463,1653,-5048,2024-01-24 10:19:23,0.0
3632,-4484,18176,1505,3853,-4977,2024-01-24 10:19:23,0.0
4108,-4844,19396,1984,5395,-4545,2024-01-24 10:19:23,0.0
3876,-3840,17212,2895,5962,-3546,2024-01-24 10:19:23,0.0
4084,-4184,15972,3725,7665,-2416,2024-01-24 10:19:23,
2320,-4160,18804,4552,6497,-240,2024-01-24 10:19:23,0.0
4132,-4020,20576,4721,3443,2268,2024-01-24 10:19:23,0.0
5736,-6988,16544,5013,692,3751,2024-01-24 10:19:23,0.0
9084,-7488,18408,5825,124,2905,2024-01-24 10:19:23,0.0
6308,-11848,13912,5562,-1319,1929,2024-01-24 10:19:23,0.0
8168,-13104,14764,4251,3927,2548,2024-01-24 10:19:23,0.0
4620,-10604,13792,2299,9247,3147,2024-01-24 10:19:23,0.0
6348,-8004,15832,1046,14728,1731,2024-01-24 10:19:23,0.0
2960,-3276,15484,1275,19281,-385,2024-01-24 10:19:23,0.0
3724,-5072,32767,5857,23820,-1774,2024-01-24 10:19:23,0.0
6416,-292,17120,8678,10197,-2594,2024-01-24 10:19:23,0.0
80,-6204,18396,8891,7167,-2437,2024-01-24 10:19:23,0.0
-944,-3976,18720,8421,2280,-1626,2024-01-24 10:19:23,0.0
-108,-3036,16364,6976,-804,-891,2024-01-24 10:19:23,0.0
-2156,-3980,19564,4795,-1679,-192,2024-01-24 10:19:23,0.0
-3612,-5040,20184,895,-3009,1533,2024-01-24 10:19:23,0.0
1752,-3600,18512,-1592,-3835,1508,2024-01-24 10:19:23,0.0
592,-2608,20816,-1812,-6802,1225,2024-01-24 10:19:23,0.0
-2368,-700,18652,-1219,-6695,3331,2024-01-24 10:19:23,0.0
-3096,-2160,18376,-1115,-5417,6497,2024-01-24 10:19:23,0.0
-2104,-1636,17488,-715,-4632,8670,2024-01-24 10:19:23,0.0
-2248,-2136,18152,-1020,-4630,9051,2024-01-24 10:19:23,0.0
448,-2012,17328,-560,2130,9851,2024-01-24 10:19:23,0.0
2276,-2264,16864,-303,3469,9365,2024-01-24 10:19:23,0.0
4296,-5216,18044,-1386,-2951,9903,2024-01-24 10:19:23,0.0
8400,-6840,18272,-934,-3337,10356,2024-01-24 10:19:23,0.0
14632,-6916,16696,-244,-36,7642,2024-01-24 10:19:23,0.0
10712,-6292,13840,5413,10994,2889,2024-01-24 10:19:23,0.0
4604,-6040,17372,3545,8619,1488,2024-01-24 10:19:23,0.0
1876,-2028,19040,-692,3977,2331,2024-01-24 10:19:23,0.0
-6596,4376,19912,-1924,2639,3091,2024-01-24 10:19:23,0.0
-4928,5204,18916,-4459,-7902,4080,2024-01-24 10:19:23,0.0
3032,132,18108,-4487,-17136,4333,2024-01-24 10:19:23,0.0
8452,-1040,14192,-146,-7430,6053,2024-01-24 10:19:23,0.0
3768,-4508,20084,-360,-359,6211,2024-01-24 10:19:23,0.0
4952,-4144,19756,-2143,-1653,-252,2024-01-24 10:19:23,0.0
2532,-7360,19704,-5587,-1587,-4816,2024-01-24 10:19:23,0.0
552,-8896,17988,-10434,964,-9793,2024-01-24 10:19:23,0.0
1216,-4820,19912,-14216,3556,-12515,2024-01-24 10:19:23,0.0
7032,-5816,18900,-13514,1123,-13149,2024-01-24 10:19:23,0.0
9188,-5100,18944,-11813,-88,-18618,2024-01-24 10:19:23,0.0
1768,-5840,20996,-8740,-5331,-19641,2024-01-24 10:19:23,0.0
-672,-3380,14972,-7370,-4561,-17487,2024-01-24 10:19:23,0.0
-2380,-1688,17272,-2374,1818,-9891,2024-01-24 10:19:23,0.0
-1420,-1124,17480,4451,5248,-5136,2024-01-24 10:19:24,0.0
2568,-1664,15712,10879,7738,-3094,2024-01-24 10:19:24,0.0
7352,-7660,19028,13258,7602,-5010,2024-01-24 10:19:24,0.0
5044,-7756,17112,11438,4774,-6201,2024-01-24 10:19:24,0.0
2820,-6996,17744,8011,2206,-4155,2024-01-24 10:19:24,0.0
6068,-6944,15628,4285,1904,-944,2024-01-24 10:19:24,0.0
6312,-5596,19004,621,-1460,-1242,2024-01-24 10:19:24,0.0
2124,-4740,19128,-3344,-1992,-1630,2024-01-24 10:19:24,0.0
2432,-3148,19660,-4533,-2505,-2538,2024-01-24 10:19:24,0.0
2372,-4100,18888,-5248,-2506,-6349,2024-01-24 10:19:24,0.0
2448,-2988,18864,-3009,-3018,-8329,2024-01-24 10:19:24,0.0
5964,-4060,16828,-28,1246,-8555,2024-01-24 10:19:24,0.0
7248,-3296,22832,4379,709,-9911,2024-01-24 10:19:24,0.0
696,-1308,19744,7824,-6619,-6966,2024-01-24 10:19:24,0.0
4536,-8888,14768,7247,-7701,-3808,2024-01-24 10:19:24,0.0
2740,-5900,14360,3791,-4052,-3213,2024-01-24 10:19:24,0.0
4576,-2764,12124,2819,4312,-1367,2024-01-24 10:19:24,0.0
2444,-288,19416,7529,6688,2665,2024-01-24 10:19:24,0.0
7076,-1456,16668,9221,9427,6593,2024-01-24 10:19:24,0.0
8284,-3900,18996,8216,8992,6560,2024-01-24 10:19:24,0.0
6468,-4104,19752,4223,7977,4155,2024-01-24 10:19:24,0.0
6440,-4256,14380,-210,8402,2152,2024-01-24 10:19:24,0.0
3952,1412,17372,-163,7751,1243,2024-01-24 10:19:24,0.0
5604,-3708,19452,1976,8843,-554,2024-01-24 10:19:24,0.0
1720,-1032,17556,824,4431,-668,2024-01-24 10:19:24,0.0
2264,-1640,18268,-1167,550,-665,2024-01-24 10:19:24,0.0
2680,-1568,18552,-3018,-1918,-1110,2024-01-24 10:19:24,0.0
4036,-2140,17488,-5268,-6192,-2529,2024-01-24 10:19:24,0.0
3964,-3404,19564,-3860,-5084,-1928,2024-01-24 10:19:24,0.0
756,-4540,19848,-1450,-3381,-1979,2024-01-24 10:19:24,0.0
676,-5264,16980,1794,-1158,-2494,2024-01-24 10:19:24,0.0
3020,-2976,18608,2270,-235,-2764,2024-01-24 10:19:24,0.0
4700,-760,17444,2359,344,-1334,2024-01-24 10:19:24,0.0
3904,-1628,18672,1553,1262,864,2024-01-24 10:19:24,0.0
3008,-3308,18540,116,637,1851,2024-01-24 10:19:24,0.0
4028,-2412,18564,-170,143,2100,2024-01-24 10:19:24,0.0
3364,-2528,18540,-1500,602,1721,2024-01-24 10:19:24,0.0
3892,-1412,18980,-3634,831,3285,2024-01-24 10:19:24,0.0
3376,-2380,18788,-4951,93,5503,2024-01-24 10:19:24,0.0
3820,-3904,19100,-7316,857,5370,2024-01-24 10:19:24,0.0
2436,-1472,18376,-5675,2559,2508,2024-01-24 10:19:24,0.0
2148,-4676,16416,-2030,4075,-1129,2024-01-24 10:19:24,0.0
2160,-2584,17072,-1877,3462,-829,2024-01-24 10:19:24,0.0
3220,-3284,17332,-1692,1494,-1195,2024-01-24 10:19:24,0.0
3016,-4912,17960,-2196,234,-4425,2024-01-24 10:19:24,0.0
1432,-3792,18380,-2734,383,-4507,2024-01-24 10:19:24,0.0
1340,-2268,18904,-3506,-239,-3613,2024-01-24 10:19:24,0.0
3136,-3468,19160,-5088,307,-2708,2024-01-24 10:19:24,0.0
4136,-3500,18976,-8599,-444,-3207,2024-01-24 10:19:24,0.0
2844,-2768,18700,-11360,-1403,514,2024-01-24 10:19:24,0.0
2988,-6852,17792,-14763,-1800,4413,2024-01-24 10:19:24,0.0
5552,-8936,18180,-12738,2659,3304,2024-01-24 10:19:24,0.0
1652,396,15640,-9429,1504,2448,2024-01-24 10:19:24,0.0
8004,-4916,14132,-8452,-3658,7592,2024-01-24 10:19:24,0.0
5684,-6696,15588,-12932,-11969,23795,2024-01-24 10:19:24,0.0
5700,-4748,16536,-9460,-12396,23470,2024-01-24 10:19:24,
5012,-4596,18196,-5575,-3224,15468,2024-01-24 10:19:24,0.0
1548,-5756,16504,-4101,4967,8652,2024-01-24 10:19:24,0.0
644,-7068,17224,-2650,6058,8003,2024-01-24 10:19:24,0.0
1556,-5136,16272,4,5052,6297,2024-01-24 10:19:24,0.0
-716,-7436,15004,5261,4912,4529,2024-01-24 10:19:24,0.0
-940,-6968,15704,10023,3750,2782,2024-01-24 10:19:25,0.0
140,-8584,14932,14752,4242,-26,2024-01-24 10:19:25,0.0
2736,-5308,15232,20759,6325,-3271,2024-01-24 10:19:25,0.0
156,-4304,18228,26673,5269,-4638,2024-01-24 10:19:25,0.0
56,-5536,16488,28252,-1951,-2543,2024-01-24 10:19:25,0.0
7268,-15016,27824,-2608,-25019,8260,2024-01-24 10:19:25,0.0
4496,-3760,15284,1909,553,6630,2024-01-24 10:19:25,0.0
-756,-6176,19272,1718,-3820,4021,2024-01-24 10:19:25,0.0
2024,-5220,21104,429,3551,191,2024-01-24 10:19:25,0.0
-976,-3892,16920,-695,1852,-1883,2024-01-24 10:19:25,0.0
-3796,-6712,17188,-614,-5748,-4089,2024-01-24 10:19:25,0.0
1844,-2120,17152,3372,-8022,-3220,2024-01-24 10:19:25,0.0
1740,1172,20844,4933,-8526,-863,2024-01-24 10:19:25,0.0
5676,-1984,19340,8920,-8800,1122,2024-01-24 10:19:25,0.0
4068,-440,12208,4843,32,1775,2024-01-24 10:19:25,0.0
3944,-1548,23432,1920,7513,2246,2024-01-24 10:19:25,0.0
1100,-3148,19268,1537,2842,2992,2024-01-24 10:19:25,0.0
1772,-3656,16516,1386,2436,3077,2024-01-24 10:19:25,0.0
2220,-2560,18092,2120,961,2923,2024-01-24 10:19:25,0.0
2596,-1564,19020,1701,2885,1696,2024-01-24 10:19:25,0.0
1488,-1892,18420,565,1021,504,2024-01-24 10:19:25,0.0
1268,-1860,17904,-617,-1472,-342,2024-01-24 10:19:25,0.0
1916,-2340,19004,-791,-2049,-727,2024-01-24 10:19:25,0.0
2604,-2336,18288,-393,-662,-367,2024-01-24 10:19:25,0.0
2688,-2588,18336,-1,723,-42,2024-01-24 10:19:25,0.0
2188,-2328,18472,95,904,30,2024-01-24 10:19:25,0.0
1828,-2436,18592,-109,-40,34,2024-01-24 10:19:25,0.0
2160,-2388,18316,-144,62,-96,2024-01-24 10:19:25,0.0
2100,-2336,18464,-69,209,-132,2024-01-24 10:19:25,0.0
2108,-2400,18312,-134,169,-183,2024-01-24 10:19:25,0.0
2136,-2160,18368,-95,144,-190,2024-01-24 10:19:25,0.0
2096,-2408,18500,-146,173,-168,2024-01-24 10:19:25,0.0
2052,-2320,18436,-114,98,-145,2024-01-24 10:19:25,0.0
2052,-2444,18148,-40,-203,-39,2024-01-24 10:19:25,0.0
2992,-2568,18448,105,913,-31,2024-01-24 10:19:25,0.0
1216,-2012,18320,11,411,-306,2024-01-24 10:19:25,0.0
1464,-2140,18844,-782,-2212,-679,2024-01-24 10:19:25,0.0
1128,-1652,19992,-2329,-10254,-3613,2024-01-24 10:19:25,0.0
1876,-5184,21920,-1975,-10246,-4726,2024-01-24 10:19:25,0.0
4840,-1316,18336,-1079,-10491,-3481,2024-01-24 10:19:25,0.0
4264,-3600,17088,-21,-7885,-2929,2024-01-24 10:19:25,0.0
452,-3624,14980,563,-4241,-2472,2024-01-24 10:19:25,0.0
4596,-2620,18836,-384,-2823,-1279,2024-01-24 10:19:25,0.0
696,-2320,20908,-1453,-9105,374,2024-01-24 10:19:25,0.0
-1124,-4196,16984,-2290,-13805,3261,2024-01-24 10:19:25,0.0
8752,-2568,19040,-3306,-2414,918,2024-01-24 10:19:25,0.0
3604,-1076,20912,31,-7889,-27,2024-01-24 10:19:25,0.0
5036,-3524,17308,2128,-10509,-117,2024-01-24 10:19:25,0.0
4284,-4268,17424,2217,-6878,-840,2024-01-24 10:19:25,0.0
1244,-2684,21988,1563,-11814,1875,2024-01-24 10:19:25,0.0
9700,-2844,19748,757,-16157,2787,2024-01-24 10:19:25,0.0
3600,-5140,21380,1944,-18280,2701,2024-01-24 10:19:25,0.0
4132,-4968,14112,3878,-15054,5185,2024-01-24 10:19:25,0.0
8292,-1928,18768,3834,-2644,5280,2024-01-24 10:19:25,0.0
7096,-2408,15728,3887,-5026,7126,2024-01-24 10:19:25,0.0
14552,-1548,17196,1139,-4947,3373,2024-01-24 10:19:25,0.0
12712,-3100,18736,639,-12032,-158,2024-01-24 10:19:25,0.0
12988,-3052,15900,2971,-18666,-1190,2024-01-24 10:19:25,0.0
12156,-1256,12356,4087,-16056,-2816,2024-01-24 10:19:25,0.0
14748,884,11088,843,-5842,-6112,2024-01-24 10:19:25,0.0
11148,-344,18312,-1692,-3968,-5922,2024-01-24 10:19:26,0.0
9072,-1120,17056,-1156,-7796,-3473,2024-01-24 10:19:26,0.0
6332,-1256,19552,627,-9470,-1456,2024-01-24 10:19:26,0.0
5204,72,22016,1909,-16207,405,2024-01-24 10:19:26,0.0
9836,600,16656,778,-19617,1476,2024-01-24 10:19:26,0.0
10452,-1148,9996,-807,-13074,1058,2024-01-24 10:19:26,0.0
13420,-728,12016,-714,-7143,15,2024-01-24 10:19:26,0.0
12576,-1868,15668,-124,-6634,793,2024-01-24 10:19:26,0.0
5832,-4988,19808,-743,-7298,956,2024-01-24 10:19:26,0.0
12956,516,-8632,-5096,-9408,54,2024-01-24 10:19:26,0.0
12760,-1760,14728,-641,745,-838,2024-01-24 10:19:26,0.0
13060,-1372,15676,-1178,-2406,-124,2024-01-24 10:19:26,0.0
16992,168,12176,-3043,-6301,-915,2024-01-24 10:19:26,0.0
13048,-1112,15424,-3875,-4590,-1074,2024-01-24 10:19:26,0.0
656,-6340,26300,-3409,-12035,-886,2024-01-24 10:19:26,0.0
10208,-512,13976,-3756,-7185,-2136,2024-01-24 10:19:26,0.0
11292,-1328,18104,-297,-13548,230,2024-01-24 10:19:26,0.0
13420,-2088,12988,598,-16058,712,2024-01-24 10:19:26,0.0
15136,-3328,10704,-44,-13438,381,2024-01-24 10:19:26,0.0
14860,-2200,11312,-1525,-10663,-540,2024-01-24 10:19:26,0.0
13932,-852,13096,19,-11620,-101,2024-01-24 10:19:26,0.0
14512,-1224,9736,3,-7258,-755,2024-01-24 10:19:26,0.0
17160,-4004,8840,-2010,-2124,-1953,2024-01-24 10:19:26,0.0
15616,-2028,12996,-2377,-373,-2061,2024-01-24 10:19:26,0.0
14972,-2628,12120,-513,-6220,-1521,2024-01-24 10:19:26,0.0
16156,-1980,10728,-701,-5066,-1521,2024-01-24 10:19:26,0.0
17760,-1388,9140,-1271,-3975,-1486,2024-01-24 10:19:26,0.0
15244,-704,10440,-940,-3825,-1213,2024-01-24 10:19:26,0.0
15500,-2280,12752,-1638,-1733,-730,2024-01-24 10:19:26,0.0
14948,-2388,13120,-2431,-10354,24,2024-01-24 10:19:26,0.0
16700,-1196,10372,-3751,-10649,-679,2024-01-24 10:19:26,0.0
16508,-32,10992,-5875,-2064,-1747,2024-01-24 10:19:26,0.0
15040,-2520,12112,-6182,7383,-2534,2024-01-24 10:19:26,0.0
13456,-3608,12460,-5242,14604,-2682,2024-01-24 10:19:26,0.0
19544,-340,10892,-2655,14703,-2067,2024-01-24 10:19:26,
17884,-3836,12252,2708,4385,1219,2024-01-24 10:19:26,0.0
17672,-3288,8676,4159,637,1369,2024-01-24 10:19:26,0.0
16044,-4744,11232,3668,2793,-263,2024-01-24 10:19:26,0.0
12312,-3560,17472,4519,4761,-1109,2024-01-24 10:19:26,0.0
15092,-2548,14996,6547,-2244,84,2024-01-24 10:19:26,0.0
18164,-1188,10256,7733,-573,2288,2024-01-24 10:19:26,0.0
16132,-772,9440,6767,1613,2560,2024-01-24 10:19:26,0.0
19948,156,5376,3888,5882,594,2024-01-24 10:19:26,0.0
17212,-2028,7796,1386,11288,-601,2024-01-24 10:19:26,0.0
14896,-2476,11940,1732,14527,193,2024-01-24 10:19:26,0.0
9480,-3556,21484,4122,8559,862,2024-01-24 10:19:26,0.0
10768,56,17032,7671,5939,2458,2024-01-24 10:19:26,0.0
14388,-1348,15340,8725,8039,2567,2024-01-24 10:19:26,0.0
15656,-1692,11456,6956,9022,2180,2024-01-24 10:19:26,0.0
19724,-1872,15088,5542,6918,350,2024-01-24 10:19:26,0.0
16832,-1912,11156,2244,5697,-994,2024-01-24 10:19:26,0.0
13872,-3048,10524,1352,2541,-1847,2024-01-24 10:19:26,0.0
14224,-2984,9932,-1111,176,-1676,2024-01-24 10:19:26,0.0
17040,-1816,14044,-1297,1194,-2462,2024-01-24 10:19:26,0.0
13168,-356,19104,944,3917,-3091,2024-01-24 10:19:26,0.0
13196,-872,11704,1365,9191,-2725,2024-01-24 10:19:26,0.0
15848,-632,7796,-3587,5193,-4983,2024-01-24 10:19:26,0.0
12828,-1084,10764,-6526,182,-5426,2024-01-24 10:19:26,0.0
11452,64,19184,-6776,-5158,-5364,2024-01-24 10:19:26,0.0
9884,2076,25080,-3596,-5443,-4890,2024-01-24 10:19:26,0.0
7984,1264,22548,758,-3924,-2418,2024-01-24 10:19:26,0.0
9756,1640,14788,2630,-809,539,2024-01-24 10:19:27,0.0
16044,-880,9204,677,2374,-312,2024-01-24 10:19:27,0.0
11044,520,5892,-2743,-2058,996,2024-01-24 10:19:27,0.0
19748,-1152,13172,-5797,-721,629,2024-01-24 10:19:27,0.0
15004,-720,19420,-2444,-406,-2781,2024-01-24 10:19:27,0.0
11516,-2300,16316,-2240,-3335,-1044,2024-01-24 10:19:27,0.0
12388,-1676,17156,-249,-9303,-958,2024-01-24 10:19:27,0.0
14124,-1092,13668,-559,-14349,-574,2024-01-24 10:19:27,0.0
15048,-980,12452,-1460,-15797,-934,2024-01-24 10:19:27,0.0
12808,-688,13320,-2004,-18541,-637,2024-01-24 10:19:27,0.0
14076,360,13928,-2636,-12882,-475,2024-01-24 10:19:27,0.0
14564,-656,13176,-1526,-9579,128,2024-01-24 10:19:27,0.0
16236,-848,14120,-736,-10856,243,2024-01-24 10:19:27,0.0
15856,-304,10276,-1422,-14022,407,2024-01-24 10:19:27,0.0
16516,68,9168,-2115,-16737,283,2024-01-24 10:19:27,0.0
14896,-1256,9084,-2840,-17969,1021,2024-01-24 10:19:27,0.0
18540,-2540,7516,-3685,-14926,1078,2024-01-24 10:19:27,0.0
15816,-1128,8176,-3060,-14012,258,2024-01-24 10:19:27,0.0
19656,-764,8308,-3791,-12224,-928,2024-01-24 10:19:27,0.0
16280,-1116,9236,-3039,-12137,-337,2024-01-24 10:19:27,0.0
18024,-320,4360,-3788,-9956,1201,2024-01-24 10:19:27,0.0
16768,-2128,3848,-4657,-4407,322,2024-01-24 10:19:27,0.0
16448,-2108,8320,-4923,-2065,254,2024-01-24 10:19:27,0.0
22676,-780,11532,-4107,-5935,391,2024-01-24 10:19:27,0.0
17136,-1276,13176,-1982,-7590,2143,2024-01-24 10:19:27,0.0
24032,-3056,800,-4388,-15940,8061,2024-01-24 10:19:27,0.0
19448,-1648,8060,-2162,-4145,803,2024-01-24 10:19:27,0.0
21288,-2216,6772,-1229,-6179,1684,2024-01-24 10:19:27,0.0
20488,-2156,3708,-691,-9243,1744,2024-01-24 10:19:27,0.0
17652,-1072,4400,-2346,-7123,2826,2024-01-24 10:19:27,0.0
19264,-2132,8760,-2106,-8494,2933,2024-01-24 10:19:27,0.0
16948,-1204,4776,-1763,-11777,3438,2024-01-24 10:19:27,0.0
15272,-692,1216,-2719,-11211,4736,2024-01-24 10:19:27,0.0
22856,-1352,1844,-2284,-11237,3766,2024-01-24 10:19:27,0.0
18468,-572,4740,-1247,-11130,2613,2024-01-24 10:19:27,0.0
18392,-1568,6684,1220,-11041,3173,2024-01-24 10:19:27,0.0
22068,-304,2100,1501,-3481,3040,2024-01-24 10:19:27,0.0
18540,-364,-576,1201,4499,2347,2024-01-24 10:19:27,0.0
20048,-896,-880,1097,12791,1550,2024-01-24 10:19:27,0.0
22216,-3064,584,493,22327,423,2024-01-24 10:19:27,0.0
20772,-1664,1004,-843,32767,-1204,2024-01-24 10:19:27,0.0
16484,-6184,7772,-1066,28110,38,2024-01-24 10:19:27,0.0
14532,-6264,13560,503,13518,614,2024-01-24 10:19:27,0.0
27816,-11224,2044,2136,16310,-3946,2024-01-24 10:19:27,0.0
30916,-732,15952,3466,22094,-4522,2024-01-24 10:19:27,0.0
16568,-632,10672,6536,32767,-3347,2024-01-24 10:19:27,0.0
12596,-6680,12404,5342,32767,918,2024-01-24 10:19:27,0.0
15040,-5016,13376,5138,23507,2669,2024-01-24 10:19:27,0.0
17168,-3728,8912,4390,17802,606,2024-01-24 10:19:27,0.0
13820,-2004,13620,4219,18211,-983,2024-01-24 10:19:27,0.0
10760,-2800,13384,6691,25606,1264,2024-01-24 10:19:27,0.0
11560,-3156,14392,8083,28320,3086,2024-01-24 10:19:27,0.0
14860,-5312,13924,7565,23859,3491,2024-01-24 10:19:27,0.0
14912,-4248,12544,7110,15864,4444,2024-01-24 10:19:27,0.0
15360,-2056,10680,6004,15300,2575,2024-01-24 10:19:27,0.0
11128,-556,12212,5895,19635,1595,2024-01-24 10:19:27,0.0
10540,-132,14220,4413,23734,202,2024-01-24 10:19:27,0.0
15400,-576,14308,3405,27248,216,2024-01-24 10:19:27,0.0
8932,-624,20124,1288,22715,-745,2024-01-24 10:19:27,0.0
12516,-2744,16712,-1831,14358,-3828,2024-01-24 10:19:27,0.0
13356,220,17528,386,16049,-10135,2024-01-24 10:19:27,0.0
-6492,-3008,15388,2609,17274,-8867,2024-01-24 10:19:28,0.0
11628,-748,15176,2093,18253,-6485,2024-01-24 10:19:28,0.0
15984,-636,16348,1593,21125,-9927,2024-01-24 10:19:28,0.0
11484,-1932,8556,-2238,15322,-11027,2024-01-24 10:19:28,0.0
3436,-2200,8648,-10024,12356,-11627,2024-01-24 10:19:28,0.0
524,-2096,13092,-13123,13753,-9417,2024-01-24 10:19:28,0.0
-4964,9296,-10440,-3688,23716,-6785,2024-01-24 10:19:28,0.0
-1452,-3396,22904,193,14226,-1264,2024-01-24 10:19:28,0.0
7060,-6360,18876,240,7162,-1562,2024-01-24 10:19:28,0.0
-1200,-8504,19900,265,3914,-634,2024-01-24 10:19:28,0.0
6380,-108,18836,-131,1164,5,2024-01-24 10:19:28,0.0
6444,-2568,18128,-432,-319,-3156,2024-01-24 10:19:28,0.0
2028,-2720,18560,-695,-1290,-3832,2024-01-24 10:19:28,
-2008,-2620,18296,-651,-856,-2314,2024-01-24 10:19:28,0.0
1472,-3204,18356,-375,-1140,-157,2024-01-24 10:19:28,0.0
3704,-2584,18116,-562,-780,-63,2024-01-24 10:19:28,0.0
-3164,104,24004,-187,-4363,478,2024-01-24 10:19:28,0.0
4812,-4196,17864,-751,-1209,-604,2024-01-24 10:19:28,0.0
2544,-2020,17852,-7,-3291,-598,2024-01-24 10:19:28,0.0
2216,-1656,16780,-1475,1696,-323,2024-01-24 10:19:28,0.0
2904,2060,20528,422,9138,-220,2024-01-24 10:19:28,0.0
1856,-4128,22336,872,2252,-1489,2024-01-24 10:19:28,0.0
-508,-2848,20132,-164,-4271,487,2024-01-24 10:19:28,0.0
3060,-5780,9940,420,9095,2500,2024-01-24 10:19:28,0.0
1056,-2420,21840,1659,5890,2992,2024-01-24 10:19:28,0.0
6184,-5256,17068,261,213,5393,2024-01-24 10:19:28,0.0
2408,-3516,18004,-1254,-4324,3275,2024-01-24 10:19:28,0.0
3372,844,19472,-739,-3659,1688,2024-01-24 10:19:28,0.0
-8304,7160,21636,-366,-5035,5698,2024-01-24 10:19:28,0.0
1132,-436,16740,101,-564,11647,2024-01-24 10:19:28,0.0
14648,-2360,19844,-79,72,6725,2024-01-24 10:19:28,0.0
14376,-3036,21748,-1031,-4451,-411,2024-01-24 10:19:28,0.0
3856,708,21124,-2140,-8196,-4233,2024-01-24 10:19:28,0.0
5148,5892,18188,-2929,-8723,-1118,2024-01-24 10:19:28,0.0
11564,52,13236,-3219,-290,-833,2024-01-24 10:19:28,0.0
4952,-3276,18532,-4043,2111,-7414,2024-01-24 10:19:28,0.0
3384,-2276,21804,-4957,2495,-8571,2024-01-24 10:19:28,0.0
12612,-9180,18988,-9072,1994,-17200,2024-01-24 10:19:28,0.0
1872,-5156,16356,-10396,-3069,-18271,2024-01-24 10:19:28,0.0
-6560,-3896,19544,-9488,-6919,-9678,2024-01-24 10:19:28,0.0
-3216,-4296,18272,-6788,-7082,-6352,2024-01-24 10:19:28,0.0
2480,-5456,15424,-3150,-4135,-7574,2024-01-24 10:19:28,0.0
9924,-8076,13984,-1406,-795,-13837,2024-01-24 10:19:28,0.0
-1964,-9020,22396,-884,-4988,-9556,2024-01-24 10:19:28,0.0
6308,-2148,18708,-3639,-7481,-4647,2024-01-24 10:19:28,0.0
8060,-3164,18576,-4834,-8380,-1654,2024-01-24 10:19:28,0.0
6328,-1772,18032,-4249,-9154,-1000,2024-01-24 10:19:28,0.0
4944,-4492,17372,-2393,-4990,-1164,2024-01-24 10:19:28,0.0
6272,-3212,15540,418,1074,-2196,2024-01-24 10:19:28,0.0
5464,-3348,16204,4618,6326,-2896,2024-01-24 10:19:28,0.0
6688,-5428,16656,7831,8875,-3954,2024-01-24 10:19:28,0.0
5148,-7000,19836,9585,7368,-4667,2024-01-24 10:19:28,0.0
5136,-4912,19928,9823,3763,-4266,2024-01-24 10:19:28,0.0
4996,-2076,19576,9390,415,-3272,2024-01-24 10:19:28,0.0
5464,-2284,18856,8869,-1000,-1899,2024-01-24 10:19:28,0.0
7124,-4280,19384,7283,-3130,-654,2024-01-24 10:19:28,0.0
9360,-3120,19136,4263,-5367,-1328,2024-01-24 10:19:28,0.0
8052,4964,18992,3450,-8275,-3036,2024-01-24 10:19:28,0.0
9544,52,15544,2819,-7692,-5469,2024-01-24 10:19:28,0.0
4524,920,18832,102,-4737,-4698,2024-01-24 10:19:28,0.0
4556,696,19948,-200,-6555,-1379,2024-01-24 10:19:28,0.0
4060,-1196,17672,-1324,-4418,-77,2024-01-24 10:19:29,0.0
3068,-3644,18308,-2218,-706,1979,2024-01-24 10:19:29,0.0
6132,-3136,16240,-1386,1400,21,2024-01-24 10:19:29,0.0
4500,-3128,18504,-989,2668,251,2024-01-24 10:19:29,0.0
5284,-656,18640,686,1809,630,2024-01-24 10:19:29,0.0
6924,-2444,17868,3117,3150,62,2024-01-24 10:19:29,0.0
7300,-2876,17176,3121,2507,77,2024-01-24 10:19:29,0.0
7172,-1760,17616,455,786,1310,2024-01-24 10:19:29,0.0
7936,-1956,18956,137,-3865,4060,2024-01-24 10:19:29,0.0
9592,-2344,15528,-1480,-1175,1377,2024-01-24 10:19:29,0.0
5292,-2212,19484,-1434,800,-1547,2024-01-24 10:19:29,0.0
6364,-2288,17552,-510,1583,-1509,2024-01-24 10:19:29,0.0
6024,-2272,18912,-192,2200,-2123,2024-01-24 10:19:29,0.0
6968,-2128,17444,-622,1261,-1079,2024-01-24 10:19:29,0.0
6548,-1312,18736,-643,-201,-837,2024-01-24 10:19:29,0.0
7336,-1684,17820,-296,147,-1114,2024-01-24 10:19:29,0.0
7012,-560,18300,-839,710,-743,2024-01-24 10:19:29,0.0
8180,-644,19024,-1314,286,1329,2024-01-24 10:19:29,0.0
6160,344,19368,-889,1058,2755,2024-01-24 10:19:29,0.0
7084,-1616,17096,85,2712,1549,2024-01-24 10:19:29,0.0
6380,-2172,17328,1220,3347,-215,2024-01-24 10:19:29,0.0
6580,-2596,18044,1316,4338,-1447,2024-01-24 10:19:29,0.0
5932,-2224,16976,406,3830,-1191,2024-01-24 10:19:29,0.0
6180,-2896,18656,-36,1769,-1612,2024-01-24 10:19:29,0.0
5724,-1252,19140,-1260,321,-1664,2024-01-24 10:19:29,0.0
5968,-1476,18400,-823,-424,-1891,2024-01-24 10:19:29,0.0
5708,-772,18204,-797,-509,-1794,2024-01-24 10:19:29,0.0
7760,-2720,17764,-1982,-420,-1737,2024-01-24 10:19:29,0.0
4956,-5236,18200,-3498,1622,-2526,2024-01-24 10:19:29,0.0
5388,-3480,19376,-4486,3508,-2940,2024-01-24 10:19:29,0.0
6332,1356,17828,-2549,3716,-2385,2024-01-24 10:19:29,0.0
5900,388,18508,859,2516,-1409,2024-01-24 10:19:29,0.0
5004,-1572,20224,3047,3248,-935,2024-01-24 10:19:29,0.0
6204,1048,18196,3355,188,1050,2024-01-24 10:19:29,0.0
7304,-2132,18992,2489,-2878,336,2024-01-24 10:19:29,0.0
5012,-3416,18676,1611,75,-1524,2024-01-24 10:19:29,0.0
6496,456,18052,4,-232,-1514,2024-01-24 10:19:29,0.0
6956,-2876,18740,-672,-1533,-4077,2024-01-24 10:19:29,0.0
5432,-64,18312,-1642,-1615,-4714,2024-01-24 10:19:29,0.0
6152,-544,16084,-1628,616,-3998,2024-01-24 10:19:29,0.0
5912,-1348,18784,-1140,-660,-2973,2024-01-24 10:19:29,0.0
6336,-1836,14404,-2923,-135,-2796,2024-01-24 10:19:29,0.0
8796,-4048,18128,-2970,-2147,-3451,2024-01-24 10:19:29,0.0
5508,-3564,17548,-3792,-806,-3562,2024-01-24 10:19:29,0.0
5056,328,18216,-1122,583,-3343,2024-01-24 10:19:29,0.0
4220,720,15940,2444,5731,-3142,2024-01-24 10:19:29,0.0
5996,-1444,17680,5181,9430,-4236,2024-01-24 10:19:29,0.0
4996,-1588,20080,1946,8488,-3132,2024-01-24 10:19:29,0.0
4856,-380,19040,-1101,4469,-672,2024-01-24 10:19:29,0.0
5348,2260,19052,-665,1836,118,2024-01-24 10:19:29,0.0
4236,744,18464,-1442,3150,1324,2024-01-24 10:19:29,0.0
1068,2792,17604,-593,5552,2821,2024-01-24 10:19:29,
3716,-704,17132,-714,7275,4484,2024-01-24 10:19:29,0.0
2188,-1140,20284,-754,6498,6565,2024-01-24 10:19:29,0.0
8508,-1892,19220,-653,2861,6450,2024-01-24 10:19:29,0.0
4280,-2920,18436,-1300,2610,5029,2024-01-24 10:19:29,0.0
5688,-3792,16668,-1316,1598,5399,2024-01-24 10:19:29,0.0
4444,-4008,16980,-610,5288,-840,2024-01-24 10:19:29,0.0
5432,-6472,19088,250,2022,-2797,2024-01-24 10:19:29,0.0
1588,-1916,20436,1137,905,-2646,2024-01-24 10:19:29,0.0
3804,-620,18800,1034,-927,-683,2024-01-24 10:19:30,0.0
3552,940,19252,707,-1693,746,2024-01-24 10:19:30,0.0
2384,2264,19740,-67,-1816,1906,2024-01-24 10:19:30,0.0
4680,2976,18232,-1201,-1013,3469,2024-01-24 10:19:30,0.0
4532,308,17540,-3351,1120,3232,2024-01-24 10:19:30,0.0
4316,-1340,18560,-4268,2809,1478,2024-01-24 10:19:30,0.0
2764,-1264,18144,-3343,2592,278,2024-01-24 10:19:30,0.0
2736,-3892,16976,-2343,2059,-415,2024-01-24 10:19:30,0.0
3828,-2992,19032,-2676,272,-373,2024-01-24 10:19:30,0.0
4228,-3412,19200,-2249,-2178,1000,2024-01-24 10:19:30,0.0
3180,-2888,18508,-3580,-1226,2240,2024-01-24 10:19:30,0.0
2356,-1692,17604,-4133,-90,3580,2024-01-24 10:19:30,0.0
3604,-1692,18440,-5542,1605,5731,2024-01-24 10:19:30,0.0
2816,-3464,17708,-7080,4559,7695,2024-01-24 10:19:30,0.0
6576,-1196,19072,-4148,3118,6308,2024-01-24 10:19:30,0.0
3912,-1868,17988,583,-209,5265,2024-01-24 10:19:30,0.0
2832,-1500,17784,2333,1144,4435,2024-01-24 10:19:30,0.0
3136,-1176,18180,3848,1460,4040,2024-01-24 10:19:30,0.0
3676,-5132,17684,908,2568,2614,2024-01-24 10:19:30,0.0
4552,-204,19184,-2588,-246,5317,2024-01-24 10:19:30,0.0
3112,-2096,18320,-5674,-1705,6483,2024-01-24 10:19:30,0.0
3488,-2096,16608,-6189,-1900,7321,2024-01-24 10:19:30,0.0
2816,-3540,17408,-5164,646,5192,2024-01-24 10:19:30,0.0
3204,-32,17352,-1757,1504,5453,2024-01-24 10:19:30,0.0
3112,-2892,19596,1008,2349,5878,2024-01-24 10:19:30,0.0
3352,-5760,17504,1202,3269,3899,2024-01-24 10:19:30,0.0
3688,-4316,18588,1535,1362,4320,2024-01-24 10:19:30,0.0
3104,-3292,17480,5129,-69,3947,2024-01-24 10:19:30,0.0
2584,-4804,17420,7933,-122,2254,2024-01-24 10:19:30,0.0
1300,-5048,19116,6798,-702,-995,2024-01-24 10:19:30,0.0
2692,-2276,17356,3652,-753,-934,2024-01-24 10:19:30,0.0
2436,-1308,19388,350,297,736,2024-01-24 10:19:30,0.0
3104,-376,18876,-164,1375,2501,2024-01-24 10:19:30,0.0
2784,-804,18336,725,1927,6932,2024-01-24 10:19:30,0.0
3688,-2328,17316,1501,731,8009,2024-01-24 10:19:30,0.0
1752,-5780,17632,2444,827,5082,2024-01-24 10:19:30,0.0
1292,-1656,19484,1788,510,2835,2024-01-24 10:19:30,0.0
2232,-2228,18828,567,649,1657,2024-01-24 10:19:30,0.0
2268,-1828,19024,-598,1584,191,2024-01-24 10:19:30,0.0
3328,-1220,18476,-1550,2120,681,2024-01-24 10:19:30,0.0
3736,0,18412,-678,277,1634,2024-01-24 10:19:30,0.0
3532,-2332,17368,363,-910,2814,2024-01-24 10:19:30,0.0
1764,-3020,17668,1267,-971,3550,2024-01-24 10:19:30,0.0
1184,-5212,17344,1301,-839,2906,2024-01-24 10:19:30,0.0
488,-3928,17808,1862,404,394,2024-01-24 10:19:30,0.0
2352,-1988,18600,545,493,-68,2024-01-24 10:19:30,0.0
2336,-2216,18320,-76,178,598,2024-01-24 10:19:30,0.0
3208,-2124,18908,706,-118,938,2024-01-24 10:19:30,0.0
2480,-1632,18376,957,-966,909,2024-01-24 10:19:30,0.0
1532,-1512,19212,539,-1157,724,2024-01-24 10:19:30,0.0
1668,-1932,18304,219,-1401,264,2024-01-24 10:19:30,0.0
2528,-1780,18652,-35,-546,-262,2024-01-24 10:19:30,0.0
2504,-1996,18272,140,-495,-217,2024-01-24 10:19:30,0.0
2680,-2016,18180,1068,-924,-205,2024-01-24 10:19:30,0.0
2636,-1988,19128,1340,-1128,-397,2024-01-24 10:19:30,0.0
2636,-1912,18448,1216,-899,-734,2024-01-24 10:19:30,0.0
2280,-1468,19336,511,-239,-561,2024-01-24 10:19:30,0.0
2960,-1860,18328,291,186,-275,2024-01-24 10:19:30,0.0
3040,788,18652,528,-541,201,2024-01-24 10:19:30,0.0
2964,-1908,18048,1224,147,259,2024-01-24 10:19:30,0.0
1876,-1272,19144,1304,-528,624,2024-01-24 10:19:31,0.0
1568,-2432,18556,812,-59,-487,2024-01-24 10:19:31,0.0
3532,520,18780,1349,19,-399,2024-01-24 10:19:31,0.0
3240,-264,18316,2075,26,226,2024-01-24 10:19:31,0.0
1412,3796,18760,6124,90,1441,2024-01-24 10:19:31,0.0
2400,-1748,21464,2840,315,4912,2024-01-24 10:19:31,0.0
1680,764,21312,-2330,-1542,9177,2024-01-24 10:19:31,0.0
2688,-1284,18084,477,27,5219,2024-01-24 10:19:31,0.0
1408,-5776,18232,1162,29,-382,2024-01-24 10:19:31,0.0
1464,-4956,18812,451,792,-2026,2024-01-24 10:19:31,0.0
2904,-2192,16572,-405,304,-2616,2024-01-24 10:19:31,0.0
3644,-900,16448,366,667,-2626,2024-01-24 10:19:31,0.0
2784,-1408,18752,50,130,-1153,2024-01-24 10:19:31,0.0
2788,-436,18412,-136,106,238,2024-01-24 10:19:31,0.0
2780,-1688,18452,223,178,977,2024-01-24 10:19:31,0.0
2664,-1960,18488,-322,22,-400,2024-01-24 10:19:31,0.0
2612,-1208,18700,-212,113,-462,2024-01-24 10:19:31,0.0
4324,-1476,17392,240,612,-1083,2024-01-24 10:19:31,0.0
1592,-1576,18396,838,695,-2883,2024-01-24 10:19:31,0.0
2620,-288,18492,673,618,-4800,2024-01-24 10:19:31,0.0
2880,-168,17348,460,-189,-5255,2024-01-24 10:19:31,0.0
2260,184,19776,59,-756,-3172,2024-01-24 10:19:31,0.0
3052,-280,18316,-382,-1320,-2160,2024-01-24 10:19:31,0.0
3012,-1644,19072,145,-1070,-2303,2024-01-24 10:19:31,0.0
1732,-2340,19068,118,-1958,-2825,2024-01-24 10:19:31,0.0
3772,-1272,16968,-363,-2263,-2760,2024-01-24 10:19:31,0.0
2928,-864,17928,-807,-1851,-2748,2024-01-24 10:19:31,0.0
3256,-1228,18332,-1094,-905,-2933,2024-01-24 10:19:31,0.0
3908,-1784,18024,-1476,1013,-4210,2024-01-24 10:19:31,0.0
3312,-1388,19476,-3036,1958,-4541,2024-01-24 10:19:31,0.0
2716,-1156,19188,-3980,-122,-3489,2024-01-24 10:19:31,0.0
3040,-1464,18952,-4105,-1772,-562,2024-01-24 10:19:31,
-972,-3764,18724,-4016,-2920,3516,2024-01-24 10:19:31,0.0
-892,-1976,18956,-2065,-5523,8708,2024-01-24 10:19:31,0.0
-6188,140,16504,3074,-4227,13517,2024-01-24 10:19:31,0.0
-5164,-3124,15472,5882,1927,18103,2024-01-24 10:19:31,0.0
1616,-2412,19572,5340,8248,18672,2024-01-24 10:19:31,0.0
10608,-264,20104,2913,7349,13703,2024-01-24 10:19:31,0.0
15204,-908,21684,949,2630,6607,2024-01-24 10:19:31,0.0
13652,-392,18116,1525,-143,-1828,2024-01-24 10:19:31,0.0
3584,-644,18356,2302,403,-3960,2024-01-24 10:19:31,0.0
2212,-1760,19036,1767,-780,-5704,2024-01-24 10:19:31,0.0
1444,-3104,18924,1010,-489,-6837,2024-01-24 10:19:31,0.0
3576,-2788,18284,447,10,-7432,2024-01-24 10:19:31,0.0
3444,-1284,18340,205,-581,-9344,2024-01-24 10:19:31,0.0
3708,-440,18576,94,-282,-9843,2024-01-24 10:19:31,0.0
2320,-1172,18872,29,-774,-9763,2024-01-24 10:19:31,0.0
1340,596,22872,-299,-3597,-6880,2024-01-24 10:19:31,0.0
1020,172,18324,122,-1727,-3482,2024-01-24 10:19:31,0.0
4496,-1128,18636,1,-2551,-2298,2024-01-24 10:19:31,0.0
4656,-1176,19272,219,-1882,-2311,2024-01-24 10:19:31,0.0
728,-540,19252,-49,-1185,-2481,2024-01-24 10:19:31,0.0
5424,-68,16372,95,-2073,409,2024-01-24 10:19:31,0.0
6412,-2388,16544,-968,-853,-1756,2024-01-24 10:19:31,0.0
2000,1720,17176,-112,-1852,-2064,2024-01-24 10:19:31,0.0
3276,-1320,17380,-642,277,-2647,2024-01-24 10:19:31,0.0
3236,-1852,17500,-686,686,-3733,2024-01-24 10:19:31,0.0
3104,-1512,18536,-907,1188,-5105,2024-01-24 10:19:31,0.0
684,300,17660,-816,2677,-2676,2024-01-24 10:19:31,0.0
4520,464,17556,-1111,5079,2524,2024-01-24 10:19:31,0.0
6512,-1112,19556,-678,4431,2055,2024-01-24 10:19:31,0.0
2768,-972,19260,-454,2908,1632,2024-01-24 10:19:32,0.0
2388,-176,19672,-574,397,5599,2024-01-24 10:19:32,0.0
2080,-1484,19008,-266,-1286,11559,2024-01-24 10:19:32,0.0
664,-2312,18776,-10,-1753,14115,2024-01-24 10:19:32,0.0
-60,-4664,17404,124,-663,13597,2024-01-24 10:19:32,0.0
-2132,-3980,19192,-770,2762,12148,2024-01-24 10:19:32,0.0
-1864,-5180,19172,103,400,11732,2024-01-24 10:19:32,0.0
-1624,-4408,17596,494,-656,14255,2024-01-24 10:19:32,0.0
1788,592,18248,417,-623,17012,2024-01-24 10:19:32,0.0
-356,-5548,17292,309,3,21816,2024-01-24 10:19:32,0.0
5344,-2112,17864,588,-683,19769,2024-01-24 10:19:32,0.0
5008,-3408,19116,407,-1755,16097,2024-01-24 10:19:32,0.0
3196,-2844,18196,177,-1598,13394,2024-01-24 10:19:32,0.0
3088,-688,18860,186,-507,12082,2024-01-24 10:19:32,0.0
3244,148,18724,45,541,11090,2024-01-24 10:19:32,0.0
3816,488,19092,-101,1106,7761,2024-01-24 10:19:32,0.0
6596,-560,16616,-552,5084,1558,2024-01-24 10:19:32,0.0
10920,4728,19424,998,878,-3631,2024-01-24 10:19:32,0.0
5432,2128,16244,-276,2004,2835,2024-01-24 10:19:32,0.0
4012,-1740,17440,-485,2196,-327,2024-01-24 10:19:32,0.0
-4732,-3648,18056,-282,470,781,2024-01-24 10:19:32,0.0
-2236,-1384,19368,-21,-590,6370,2024-01-24 10:19:32,0.0
1964,-4044,18652,368,-3680,8535,2024-01-24 10:19:32,0.0
2084,-1152,20632,1261,-9306,10136,2024-01-24 10:19:32,0.0
10640,-356,18292,2390,-10732,6667,2024-01-24 10:19:32,0.0
10628,-604,15172,1385,-7442,2454,2024-01-24 10:19:32,0.0
9804,-320,17308,749,-5179,-770,2024-01-24 10:19:32,0.0
14352,1236,18132,-461,-1209,-5716,2024-01-24 10:19:32,0.0
7672,1932,16364,-1334,2267,-7965,2024-01-24 10:19:32,0.0
-2864,2804,22568,-760,-668,-6955,2024-01-24 10:19:32,0.0
-5640,1836,23220,820,-6013,-702,2024-01-24 10:19:32,0.0
-4712,1456,20612,2457,-10812,5860,2024-01-24 10:19:32,0.0
1676,-604,17552,2690,-9270,8189,2024-01-24 10:19:32,0.0
9132,-1300,14156,1867,-4218,6672,2024-01-24 10:19:32,0.0
12020,-1820,14060,203,1978,3703,2024-01-24 10:19:32,0.0
11432,-2312,16552,-1292,8527,-32,2024-01-24 10:19:32,0.0
7092,-216,20660,-943,3907,-430,2024-01-24 10:19:32,0.0
5552,4056,17832,-296,420,590,2024-01-24 10:19:32,0.0
5252,80,18272,84,-1624,38,2024-01-24 10:19:32,0.0
5656,-324,17524,178,839,-1407,2024-01-24 10:19:32,0.0
8736,-1408,16340,-424,2641,-3234,2024-01-24 10:19:32,0.0
6564,-1888,16524,-1060,4705,-4155,2024-01-24 10:19:32,0.0
2924,104,18584,-1158,4235,-3042,2024-01-24 10:19:32,0.0
4460,-400,18396,-665,3375,-2514,2024-01-24 10:19:32,0.0
4908,-756,19948,-116,1400,-2280,2024-01-24 10:19:32,0.0
4628,-176,18272,-85,121,-2466,2024-01-24 10:19:32,0.0
5804,-1152,17756,-573,2603,-3204,2024-01-24 10:19:32,0.0
4120,-636,18776,-1218,5855,-4045,2024-01-24 10:19:32,0.0
11432,-1368,10192,-3111,12231,-5064,2024-01-24 10:19:32,0.0
5416,248,21088,-1400,6513,-5688,2024-01-24 10:19:32,0.0
-608,176,12676,-213,-698,-3249,2024-01-24 10:19:32,0.0
5048,-1252,18260,-328,3353,-3983,2024-01-24 10:19:32,0.0
-772,-1268,18720,-107,1435,-1904,2024-01-24 10:19:32,0.0
9680,-1212,11996,-305,1757,-535,2024-01-24 10:19:32,0.0
1300,272,17564,-209,1921,-1676,2024-01-24 10:19:32,0.0
788,-472,19104,-28,1200,-2114,2024-01-24 10:19:32,0.0
100,-84,17816,-23,1112,-691,2024-01-24 10:19:32,0.0
2788,-124,19464,-77,427,-178,2024-01-24 10:19:32,0.0
-748,-124,22756,-76,-1755,207,2024-01-24 10:19:32,0.0
4264,-112,13092,-10,-3734,636,2024-01-24 10:19:32,0.0
5824,-784,17076,-17,-1636,864,2024-01-24 10:19:32,0.0
4672,-2300,16592,-333,1739,102,2024-01-24 10:19:33,0.0
1720,-764,21172,-115,312,-126,2024-01-24 10:19:33,0.0
2556,-980,18908,-178,-250,-88,2024-01-24 10:19:33,0.0
2684,-944,19724,-120,-561,-162,2024-01-24 10:19:33,0.0
2288,-532,20292,-78,-664,-152,2024-01-24 10:19:33,0.0
3864,-652,17256,-128,-385,-207,2024-01-24 10:19:33,0.0
3012,-432,18228,-87,-546,-201,2024-01-24 10:19:33,0.0
3076,-636,18836,-43,-803,-138,2024-01-24 10:19:33,0.0
2260,-16,18584,61,-1588,-30,2024-01-24 10:19:33,0.0
3356,-1236,19268,-85,-835,-268,2024-01-24 10:19:33,
4332,-312,16160,47,-421,248,2024-01-24 10:19:33,0.0
7264,-4216,19256,176,-401,-343,2024-01-24 10:19:33,0.0
3432,-1516,16960,-92,564,183,2024-01-24 10:19:33,0.0
2060,-2072,17800,-177,902,681,2024-01-24 10:19:33,0.0
-960,-540,18200,-56,1008,3112,2024-01-24 10:19:33,0.0
3388,-3744,18928,14,-1119,3889,2024-01-24 10:19:33,0.0
1428,-2704,19432,45,644,4598,2024-01-24 10:19:33,0.0
1740,-1444,18372,182,-114,4592,2024-01-24 10:19:33,0.0
4808,-2944,19472,249,-409,5364,2024-01-24 10:19:33,0.0
6268,-912,18568,32,-412,4918,2024-01-24 10:19:33,0.0
7596,-1688,19112,-47,-801,2533,2024-01-24 10:19:33,0.0
2848,-2220,18644,-384,2,819,2024-01-24 10:19:33,0.0
1156,1660,20536,-334,371,619,2024-01-24 10:19:33,0.0
4224,-1500,21256,-229,320,-475,2024-01-24 10:19:33,0.0
7592,-368,18208,-524,809,-2274,2024-01-24 10:19:33,0.0
5424,-2644,20184,-121,-610,-3061,2024-01-24 10:19:33,0.0
6664,-3384,16284,-282,1406,-5969,2024-01-24 10:19:33,0.0
1844,-36,17676,-525,1602,-5968,2024-01-24 10:19:33,0.0
1000,-76,19116,-461,2061,-4302,2024-01-24 10:19:33,0.0
1772,-40,18780,-467,1461,-2773,2024-01-24 10:19:33,0.0
3272,-1108,18748,-333,256,-1606,2024-01-24 10:19:33,0.0
3792,-2808,18248,-181,351,-1274,2024-01-24 10:19:33,0.0
2872,-1388,19660,-212,-217,-1384,2024-01-24 10:19:33,0.0
3456,-1592,18356,-377,273,-1812,2024-01-24 10:19:33,0.0
3688,1332,19000,-560,364,-2198,2024-01-24 10:19:33,0.0
5132,-3400,19344,-520,-833,-3722,2024-01-24 10:19:33,0.0
9644,-3528,18228,-678,-2268,-6494,2024-01-24 10:19:33,0.0
-17696,6688,18544,-1004,550,-401,2024-01-24 10:19:33,0.0
-3664,-1356,20380,-868,6377,7201,2024-01-24 10:19:33,0.0
536,-1156,20444,146,-2864,4862,2024-01-24 10:19:33,0.0
1960,-2688,19204,64,-3592,5840,2024-01-24 10:19:33,0.0
2364,-1660,17616,-572,-1367,6919,2024-01-24 10:19:33,0.0
2528,-5140,18552,-641,-37,10454,2024-01-24 10:19:33,0.0
5860,-232,18612,-693,647,11379,2024-01-24 10:19:33,0.0
6988,1908,17868,-335,1761,9105,2024-01-24 10:19:33,0.0
7780,3404,16948,-332,6199,6037,2024-01-24 10:19:33,0.0
9304,-116,20956,731,3801,1722,2024-01-24 10:19:33,0.0
984,-172,19664,72,490,-200,2024-01-24 10:19:33,0.0
7848,-1280,17640,778,1674,-1413,2024-01-24 10:19:33,0.0
1336,6160,18684,1249,1954,-4183,2024-01-24 10:19:33,0.0
416,1736,18776,-262,-1384,-4712,2024-01-24 10:19:33,0.0
3996,40,18460,-594,-357,-5846,2024-01-24 10:19:33,0.0
1704,-4636,19168,-527,-544,-5295,2024-01-24 10:19:33,0.0
2260,-4132,18584,-625,-1066,-2844,2024-01-24 10:19:33,0.0
4024,-2040,18860,-835,-1062,-2917,2024-01-24 10:19:33,0.0
5196,-1848,20476,-659,-1331,-4422,2024-01-24 10:19:33,0.0
8580,-788,18064,-339,2421,-8195,2024-01-24 10:19:33,0.0
5472,-4296,18828,-481,1046,-10033,2024-01-24 10:19:33,0.0
2916,-4548,18004,-745,988,-10278,2024-01-24 10:19:33,0.0
-1656,-1840,18364,-392,1023,-7650,2024-01-24 10:19:34,0.0
-244,-3180,19140,-1324,-82,-6738,2024-01-24 10:19:34,0.0
1772,-4368,17416,-1824,-1599,-4633,2024-01-24 10:19:34,0.0
-2396,-2880,19564,-3048,-2911,-1308,2024-01-24 10:19:34,0.0
-3216,3920,19336,821,922,1458,2024-01-24 10:19:34,0.0
812,-1068,18960,396,1196,1941,2024-01-24 10:19:34,0.0
852,-3252,18872,-1200,-490,3989,2024-01-24 10:19:34,0.0
980,-3908,20980,-2790,-3395,6432,2024-01-24 10:19:34,0.0
556,-2404,20540,-4267,-7272,7872,2024-01-24 10:19:34,0.0
1588,-6328,18764,-2196,-10562,12364,2024-01-24 10:19:34,0.0
5640,592,18600,1997,-9680,13844,2024-01-24 10:19:34,0.0
10836,7132,15676,3144,-3673,6502,2024-01-24 10:19:34,0.0
8124,1516,15020,1376,5862,2527,2024-01-24 10:19:34,0.0
3728,-2212,19572,862,3228,2877,2024-01-24 10:19:34,0.0
6172,-64,19288,2649,-690,2487,2024-01-24 10:19:34,0.0
4700,772,19128,3610,-2361,1180,2024-01-24 10:19:34,0.0
4460,-1316,18948,1764,-6055,800,2024-01-24 10:19:34,0.0
2528,-1248,17472,139,-4951,1834,2024-01-24 10:19:34,0.0
976,-928,18944,-562,-3844,4134,2024-01-24 10:19:34,0.0
7896,-2340,15128,-242,-1559,3795,2024-01-24 10:19:34,0.0
8664,872,18736,-670,480,154,2024-01-24 10:19:34,0.0
4292,-692,19220,26,-4970,353,2024-01-24 10:19:34,0.0
3480,-3524,19344,-118,-7064,1444,2024-01-24 10:19:34,0.0
3400,-4100,19520,-169,-8791,3470,2024-01-24 10:19:34,0.0
5196,-572,19920,715,-13449,4541,2024-01-24 10:19:34,0.0
8040,196,14920,755,-8966,2579,2024-01-24 10:19:34,0.0
5912,-1296,16084,1862,-4940,1425,2024-01-24 10:19:34,0.0
7116,-1100,15364,3143,1614,35,2024-01-24 10:19:34,0.0
9384,-2276,12548,1656,13621,-2623,2024-01-24 10:19:34,0.0
7856,-1604,13316,1973,24864,-5495,2024-01-24 10:19:34,0.0
11496,772,7488,-2366,32767,-7311,2024-01-24 10:19:34,0.0
-1032,7176,32767,3515,28399,-7066,2024-01-24 10:19:34,0.0
2588,-6320,15704,1055,3998,-4389,2024-01-24 10:19:34,0.0
360,-1120,18008,957,3645,-3230,2024-01-24 10:19:34,0.0
4464,588,18096,792,2902,-3627,2024-01-24 10:19:34,0.0
-2392,-384,18104,503,1375,-2158,2024-01-24 10:19:34,0.0
-264,-2632,18588,-115,-586,-367,2024-01-24 10:19:34,0.0
992,-1632,18460,-371,-1024,-58,2024-01-24 10:19:34,0.0
2208,-496,18880,-361,-926,-326,2024-01-24 10:19:34,0.0
3572,-1704,18584,-276,-672,-962,2024-01-24 10:19:34,0.0
7440,-1852,18420,35,959,-5057,2024-01-24 10:19:34,0.0
5456,-780,18212,-64,139,-7060,2024-01-24 10:19:34,0.0
4668,-1592,18520,-101,-299,-9394,2024-01-24 10:19:34,0.0
8000,1292,20212,-565,-1867,-15807,2024-01-24 10:19:34,0.0
3412,-2356,18380,-820,-2164,-16467,2024-01-24 10:19:34,0.0
-4016,1356,19004,-622,-1470,-15147,2024-01-24 10:19:34,0.0
-6744,-480,19044,-958,-2112,-8231,2024-01-24 10:19:34,0.0
-532,-1656,18536,-539,-900,-3394,2024-01-24 10:19:34,0.0
3756,-1584,16724,-277,361,-2190,2024-01-24 10:19:34,0.0
-1836,7896,31088,5019,9299,-2610,2024-01-24 10:19:34,0.0
120,-5180,18760,-1125,-2130,-3816,2024-01-24 10:19:34,
-3696,4944,19944,-61,96,-1678,2024-01-24 10:19:34,0.0
4596,-2312,19200,-127,292,-1742,2024-01-24 10:19:34,0.0
3316,-816,18304,-233,-173,-2753,2024-01-24 10:19:34,0.0
1184,1352,18844,-119,124,-3364,2024-01-24 10:19:34,0.0
1572,-468,18548,-295,-155,-2395,2024-01-24 10:19:34,0.0
792,1504,18568,-352,-530,-988,2024-01-24 10:19:34,0.0
2620,224,17832,-221,-1590,32,2024-01-24 10:19:34,0.0
3532,-564,18440,-63,-1313,691,2024-01-24 10:19:34,0.0
2872,-100,15952,-173,1099,2210,2024-01-24 10:19:34,0.0
7980,-1668,21948,-1542,-182,2992,2024-01-24 10:19:34,0.0
3464,-2200,19728,-78,444,3906,2024-01-24 10:19:35,0.0
4240,2440,29824,-620,-5215,6486,2024-01-24 10:19:35,0.0
8224,-2480,19268,-453,-605,4491,2024-01-24 10:19:35,0.0
6824,-2824,20208,-1173,-3264,1689,2024-01-24 10:19:35,0.0
-3040,1020,20736,-1500,-6330,1453,2024-01-24 10:19:35,0.0
-3712,1956,20140,-1531,-9872,2637,2024-01-24 10:19:35,0.0
1792,-2112,18040,-2109,-11136,2397,2024-01-24 10:19:35,0.0
4680,-9284,15020,-4101,-5985,2223,2024-01-24 10:19:35,0.0
4512,-10272,14288,-5509,3577,721,2024-01-24 10:19:35,0.0
-3048,-3452,16668,-7186,14479,48,2024-01-24 10:19:35,0.0
9692,2512,32767,-3526,32767,11751,2024-01-24 10:19:35,0.0
2544,3060,16024,-309,22315,21455,2024-01-24 10:19:35,0.0
7792,-1868,12660,-4567,2339,22413,2024-01-24 10:19:35,0.0
8508,-1912,15976,-867,-6343,16524,2024-01-24 10:19:35,0.0
8144,-532,16716,-1673,-21479,12004,2024-01-24 10:19:35,0.0
5028,-900,26992,1445,-24374,9996,2024-01-24 10:19:35,0.0
8328,48,14340,-722,7279,5988,2024-01-24 10:19:35,0.0
-1188,-1988,23168,-1242,6460,3838,2024-01-24 10:19:35,0.0
700,-1016,17124,-1832,1244,3959,2024-01-24 10:19:35,0.0
-656,-252,18052,-1628,-2237,5560,2024-01-24 10:19:35,0.0
2624,-916,17956,-362,-1940,5008,2024-01-24 10:19:35,0.0
1656,-40,18704,396,-2060,2860,2024-01-24 10:19:35,0.0
2568,-2192,18648,-471,-337,811,2024-01-24 10:19:35,0.0
3116,-2948,18828,-1865,2445,335,2024-01-24 10:19:35,0.0
1572,-1556,18376,-1879,1592,390,2024-01-24 10:19:35,0.0
-1772,-1176,18404,-73,1491,1022,2024-01-24 10:19:35,0.0
-2552,-2256,18480,1398,326,3711,2024-01-24 10:19:35,0.0
-72,-3832,18136,708,-2614,5058,2024-01-24 10:19:35,0.0
1632,-4064,19160,-2416,687,5418,2024-01-24 10:19:35,0.0
40,-3540,19736,-4422,4826,5905,2024-01-24 10:19:35,0.0
-944,-2572,18836,-5140,7170,6835,2024-01-24 10:19:35,0.0
-896,-3064,19184,-4512,11194,8997,2024-01-24 10:19:35,0.0
1224,-2900,17760,-4500,10497,10161,2024-01-24 10:19:35,0.0
1956,-2976,17412,-4472,8392,10311,2024-01-24 10:19:35,0.0
5420,-1664,16784,-4114,1050,10782,2024-01-24 10:19:35,0.0
7540,-1944,17812,-4177,-7040,8722,2024-01-24 10:19:35,0.0
6324,-1776,18564,-4224,-10336,5385,2024-01-24 10:19:35,0.0
1944,-1212,18668,-4046,-10640,2302,2024-01-24 10:19:35,0.0
1032,-1804,19508,-3227,-7639,2684,2024-01-24 10:19:35,0.0
1068,-2300,18128,-2174,-5401,3861,2024-01-24 10:19:35,0.0
628,-2676,17856,-457,-6945,4833,2024-01-24 10:19:35,0.0
1548,-2596,18424,2329,-3671,5121,2024-01-24 10:19:35,0.0
2536,-2860,18648,3593,1789,4335,2024-01-24 10:19:35,0.0
2636,-2760,19440,3682,6072,2503,2024-01-24 10:19:35,0.0
1736,-892,19420,4084,8431,2515,2024-01-24 10:19:35,0.0
2172,-760,19116,4789,10818,3401,2024-01-24 10:19:35,0.0
2828,-1520,19700,5431,13565,3453,2024-01-24 10:19:35,0.0
340,-4576,15704,7795,5381,8174,2024-01-24 10:19:35,0.0
3652,-1976,17388,5884,-5669,6232,2024-01-24 10:19:35,0.0
2376,-908,19712,3564,-8751,3620,2024-01-24 10:19:35,0.0
2696,-2196,21592,1873,-4797,1723,2024-01-24 10:19:35,0.0
1172,-1128,20028,1657,-2070,284,2024-01-24 10:19:35,0.0
52,-1020,16480,1123,-1649,258,2024-01-24 10:19:35,0.0
192,-808,17728,-1329,-748,658,2024-01-24 10:19:35,0.0
-1416,-468,17380,-5765,-11481,2769,2024-01-24 10:19:35,0.0
1684,-1240,21148,-5632,-11845,4471,2024-01-24 10:19:35,0.0
3128,-848,22060,3425,13768,2813,2024-01-24 10:19:35,0.0
3384,-3412,20052,6403,26810,2568,2024-01-24 10:19:35,0.0
-20,-3572,23276,6528,31114,1329,2024-01-24 10:19:35,0.0
-1960,-4712,13580,3152,17224,38,2024-01-24 10:19:35,0.0
3428,2420,17392,-632,1468,408,2024-01-24 10:19:35,0.0
-804,960,19980,-1285,827,-1217,2024-01-24 10:19:35,0.0
-900,640,19424,-615,6530,-1670,2024-01-24 10:19:36,0.0
-2488,76,16832,-1025,5689,-1194,2024-01-24 10:19:36,0.0
-3504,-1376,14212,-3832,-5693,720,2024-01-24 10:19:36,0.0
-1728,-900,16080,-7075,-18346,1924,2024-01-24 10:19:36,0.0
752,144,20280,-6078,-15755,1893,2024-01-24 10:19:36,0.0
5140,3036,19552,-3919,-5291,-1381,2024-01-24 10:19:36,0.0
-172,-956,17128,-2433,369,-4628,2024-01-24 10:19:36,0.0
-2348,-4240,20028,-319,1449,-3537,2024-01-24 10:19:36,0.0
-1248,-2536,17020,94,-3006,-3409,2024-01-24 10:19:36,0.0
852,-416,16208,552,-10280,-3722,2024-01-24 10:19:36,0.0
-400,-1764,17640,639,-13250,-3388,2024-01-24 10:19:36,0.0
1392,-2852,20816,18,-11607,-3715,2024-01-24 10:19:36,0.0
-2872,-2572,19504,-510,-8111,-4275,2024-01-24 10:19:36,0.0
-2020,-2688,22008,-22,-7027,-822,2024-01-24 10:19:36,0.0
-2820,-2712,18284,752,-3382,1210,2024-01-24 10:19:36,0.0
3128,-2436,22672,3888,5055,7391,2024-01-24 10:19:36,0.0
920,-2916,19376,2298,6627,7465,2024-01-24 10:19:36,0.0
2924,-3012,20312,-1200,7088,7599,2024-01-24 10:19:36,0.0
-604,-12140,18584,-4230,8253,7876,2024-01-24 10:19:36,0.0
-1648,-5256,19548,-6401,10321,7598,2024-01-24 10:19:36,0.0
696,2428,20472,-6397,9702,9084,2024-01-24 10:19:36,0.0
2364,2224,17924,-5077,10063,7290,2024-01-24 10:19:36,0.0
60,-660,21204,-6275,5775,6304,2024-01-24 10:19:36,0.0
2568,-3112,19028,-9127,5748,6045,2024-01-24 10:19:36,0.0
2012,-5172,17704,-11984,2730,4826,2024-01-24 10:19:36,0.0
3864,-4348,16000,-17763,-8808,1209,2024-01-24 10:19:36,0.0
532,-1704,17832,-21650,-23790,-1029,2024-01-24 10:19:36,0.0
2072,-4500,18444,-19793,-19712,906,2024-01-24 10:19:36,
2896,-6684,20424,-11524,1292,624,2024-01-24 10:19:36,0.0
-11364,-5928,18556,4371,32371,5398,2024-01-24 10:19:36,0.0
-7704,-5452,15400,3310,25346,11251,2024-01-24 10:19:36,0.0
-2672,-6780,16568,3809,23856,12735,2024-01-24 10:19:36,0.0
-3148,-3720,23732,8711,14767,12469,2024-01-24 10:19:36,0.0
6324,-6592,13048,8632,5229,3350,2024-01-24 10:19:36,0.0
3116,-3288,17180,4257,-15086,712,2024-01-24 10:19:36,0.0
4772,3860,16356,6944,-28142,1355,2024-01-24 10:19:36,0.0
-6116,-188,31252,4943,-32768,3406,2024-01-24 10:19:36,0.0
5108,-5492,17536,2584,-30496,-1361,2024-01-24 10:19:36,0.0
3216,-5460,22608,115,-27081,-2381,2024-01-24 10:19:36,0.0
6716,-9028,22056,-252,-21136,-3833,2024-01-24 10:19:36,0.0
11220,-6020,18884,1238,-8987,-9678,2024-01-24 10:19:36,0.0
8144,-4276,20348,813,-14034,-12209,2024-01-24 10:19:36,0.0
6804,-3604,14612,-1,-12024,-13741,2024-01-24 10:19:36,0.0
2376,-6604,15420,-3051,-2394,-13618,2024-01-24 10:19:36,0.0
3728,-3860,19376,-3634,-2023,-11212,2024-01-24 10:19:36,0.0
2652,-3208,19744,-2092,-6260,-9778,2024-01-24 10:19:36,0.0
6544,-3112,16816,1430,-4487,-9962,2024-01-24 10:19:36,0.0
3856,-7840,25048,5200,-10691,-9407,2024-01-24 10:19:36,0.0
3028,-5324,19268,4960,-13909,-11299,2024-01-24 10:19:36,0.0
-2796,-4164,21840,6389,-13140,-8560,2024-01-24 10:19:36,0.0
-2096,-1972,18976,6509,-11831,-6451,2024-01-24 10:19:36,0.0
-2572,-420,19108,8008,-7886,-822,2024-01-24 10:19:36,0.0
7652,-2032,17032,9756,-6267,927,2024-01-24 10:19:36,0.0
7728,-3048,16340,8557,-1501,694,2024-01-24 10:19:36,0.0
6772,-2120,20264,7409,-438,1105,2024-01-24 10:19:36,0.0
6108,348,21744,7026,-9715,2499,2024-01-24 10:19:36,0.0
9356,160,15616,6042,-8958,2522,2024-01-24 10:19:36,0.0
8960,-412,16644,4819,-5379,1997,2024-01-24 10:19:36,0.0
9476,-1480,16628,3194,-3725,2632,2024-01-24 10:19:36,0.0
9968,-1796,16196,2635,-3327,2766,2024-01-24 10:19:36,0.0
8868,-636,17720,1855,-3692,2457,2024-01-24 10:19:37,0.0
12056,1688,12652,159,4274,2031,2024-01-24 10:19:37,0.0
10836,936,14488,-1397,11076,53,2024-01-24 10:19:37,0.0
8428,-728,14480,-2552,21153,869,2024-01-24 10:19:37,0.0
5788,-1248,13136,-4344,32767,510,2024-01-24 10:19:37,0.0
6844,-3068,15816,-4260,32767,-3401,2024-01-24 10:19:37,0.0
-1048,-1848,32767,476,848,-1730,2024-01-24 10:19:37,0.0
5496,556,12308,2466,-11910,1921,2024-01-24 10:19:37,0.0
5740,-52,7488,3419,8906,4202,2024-01-24 10:19:37,0.0
5388,552,9548,-880,31868,3765,2024-01-24 10:19:37,0.0
7668,-436,29060,1196,32767,2071,2024-01-24 10:19:37,0.0
-3096,1116,17880,-867,13,-50,2024-01-24 10:19:37,0.0
1908,-928,22916,-4144,-21819,896,2024-01-24 10:19:37,0.0
2596,-328,10856,-1381,-481,890,2024-01-24 10:19:37,0.0
3444,-184,20420,1033,7414,-209,2024-01-24 10:19:37,0.0
704,172,18952,-164,-391,-19,2024-01-24 10:19:37,0.0
3360,-920,18552,-479,-1894,-269,2024-01-24 10:19:37,0.0
3304,-588,18228,12,1671,-163,2024-01-24 10:19:37,0.0
1836,-504,18952,-144,151,-145,2024-01-24 10:19:37,0.0
3084,-648,18296,-261,-312,-204,2024-01-24 10:19:37,0.0
2824,-632,18520,-85,572,-172,2024-01-24 10:19:37,0.0
2636,-636,18572,-186,14,-189,2024-01-24 10:19:37,0.0
2844,-612,18528,-143,274,-156,2024-01-24 10:19:37,0.0
2664,-552,18528,-199,105,-169,2024-01-24 10:19:37,0.0
2700,-656,18604,-156,236,-176,2024-01-24 10:19:37,0.0
2692,-720,18680,-181,142,-184,2024-01-24 10:19:37,0.0
2632,-792,18716,-144,125,-165,2024-01-24 10:19:37,0.0
2616,-640,18844,-177,151,-197,2024-01-24 10:19:37,0.0
2872,-604,18624,-201,83,-169,2024-01-24 10:19:37,0.0
2792,-596,18476,-127,156,-150,2024-01-24 10:19:37,0.0
2924,-680,18492,-205,275,-205,2024-01-24 10:19:37,0.0
2928,-480,18372,-185,246,-172,2024-01-24 10:19:37,0.0
2680,-644,18516,-165,237,-168,2024-01-24 10:19:37,0.0
2492,-620,18912,-151,83,-185,2024-01-24 10:19:37,0.0
2884,-564,18436,-163,65,-186,2024-01-24 10:19:37,0.0
2564,-696,19016,-88,331,-159,2024-01-24 10:19:37,0.0
2824,-604,18460,-223,173,-164,2024-01-24 10:19:37,0.0
2552,-700,18564,-122,281,-190,2024-01-24 10:19:37,0.0
2688,-656,18464,-186,104,-173,2024-01-24 10:19:37,0.0
2784,-612,18620,-141,398,-193,2024-01-24 10:19:37,0.0
1356,-252,18740,-205,314,126,2024-01-24 10:19:37,0.0
5356,-1284,19740,-411,-1316,-377,2024-01-24 10:19:37,0.0
2680,-1012,18516,422,2199,-91,2024-01-24 10:19:37,0.0
-2796,-256,18716,274,2403,1992,2024-01-24 10:19:37,0.0
6728,24,15952,-529,-434,3202,2024-01-24 10:19:37,0.0
8756,180,18492,-347,524,-2138,2024-01-24 10:19:37,0.0
-1248,280,18984,-380,-1097,-1426,2024-01-24 10:19:37,0.0
3592,-168,18408,-219,-54,-1185,2024-01-24 10:19:37,0.0
1056,-2424,18732,-61,55,-1076,2024-01-24 10:19:37,0.0
2236,-140,18888,-3,-170,-115,2024-01-24 10:19:37,0.0
108,-1300,18992,39,-1413,309,2024-01-24 10:19:37,0.0
-10232,-3424,19012,-36,-1471,5229,2024-01-24 10:19:37,0.0
13160,-8960,17784,-387,927,4373,2024-01-24 10:19:37,0.0
7748,2680,18028,-198,-777,-3248,2024-01-24 10:19:37,0.0
4932,1784,17976,-363,472,-3797,2024-01-24 10:19:37,0.0
5904,-2924,18684,41,-653,-5080,2024-01-24 10:19:37,0.0
4628,-5100,18716,-243,-1040,-5326,2024-01-24 10:19:37,0.0
3260,-2912,16872,-495,1499,-4992,2024-01-24 10:19:37,0.0
-1388,-1284,18148,-121,-18,-2012,2024-01-24 10:19:37,0.0
1368,920,19404,-173,-1018,63,2024-01-24 10:19:38,0.0
4036,4640,17320,-361,926,-306,2024-01-24 10:19:38,0.0
1896,3664,18720,16,960,-99,2024-01-24 10:19:38,0.0
-3108,-776,20296,68,-1966,2476,2024-01-24 10:19:38,0.0
2520,-468,17412,-112,-93,4147,2024-01-24 10:19:38,0.0
6148,1072,17860,-11,1767,2463,2024-01-24 10:19:38,0.0
3144,-544,19284,-152,498,484,2024-01-24 10:19:38,0.0
4672,-1136,18084,-341,493,225,2024-01-24 10:19:38,0.0
2268,-848,18884,-115,1960,-31,2024-01-24 10:19:38,
2348,-460,19028,-272,-356,-157,2024-01-24 10:19:38,0.0
2832,-652,18280,-357,1129,-143,2024-01-24 10:19:38,0.0
2624,-1084,18420,-179,450,-60,2024-01-24 10:19:38,0.0
2580,-796,18548,131,265,-155,2024-01-24 10:19:38,0.0
1116,-3188,18644,-133,292,881,2024-01-24 10:19:38,0.0
2300,-2484,18520,-116,220,1887,2024-01-24 10:19:38,0.0
1888,-1732,18740,-84,366,2130,2024-01-24 10:19:38,0.0
1292,-3604,18904,-24,236,2988,2024-01-24 10:19:38,0.0
4740,-2144,18716,-92,231,1858,2024-01-24 10:19:38,0.0
6344,-512,18352,-102,340,-818,2024-01-24 10:19:38,0.0
5212,144,18848,-91,451,-2945,2024-01-24 10:19:38,0.0
5456,512,18268,-156,162,-4319,2024-01-24 10:19:38,0.0
5760,1332,17916,-122,308,-5994,2024-01-24 10:19:38,0.0
-1924,3696,18372,-352,392,-3660,2024-01-24 10:19:38,0.0
172,936,18984,-653,-1500,253,2024-01-24 10:19:38,0.0
2956,128,18812,38,0,209,2024-01-24 10:19:38,0.0
3404,-1612,18528,69,372,-1250,2024-01-24 10:19:38,0.0
2548,-476,19088,-52,-459,-106,2024-01-24 10:19:38,0.0
588,-2448,18416,-179,-9,535,2024-01-24 10:19:38,0.0
1780,-228,18344,-258,4,1165,2024-01-24 10:19:38,0.0
2300,888,18788,-130,-25,1811,2024-01-24 10:19:38,0.0
1060,280,18792,-190,-509,2198,2024-01-24 10:19:38,0.0
1864,-56,19440,-185,-161,3244,2024-01-24 10:19:38,0.0
2756,-452,18708,-167,-287,3228,2024-01-24 10:19:38,0.0
3152,-500,18876,-221,-638,2451,2024-01-24 10:19:38,0.0
4552,-1124,18088,-250,-409,1701,2024-01-24 10:19:38,0.0
2788,-1736,18840,-87,-1072,1116,2024-01-24 10:19:38,0.0
1844,-960,18380,-173,-1248,1902,2024-01-24 10:19:38,0.0
1492,-752,18540,-62,84,2636,2024-01-24 10:19:38,0.0
6192,-444,18764,-39,509,2469,2024-01-24 10:19:38,0.0
5428,-900,18976,-109,-1312,1083,2024-01-24 10:19:38,0.0
3424,-720,18684,-143,-1394,600,2024-01-24 10:19:38,0.0
-568,-348,18972,20,-1940,1583,2024-01-24 10:19:38,0.0
2000,28,18476,-16,-1498,2709,2024-01-24 10:19:38,0.0
2104,896,19084,13,-1999,3173,2024-01-24 10:19:38,0.0
3884,-16,18668,-166,-1095,3164,2024-01-24 10:19:38,0.0
3048,-1404,17964,2,268,3019,2024-01-24 10:19:38,0.0
-1292,-3288,19276,434,-903,5074,2024-01-24 10:19:38,0.0
1188,-1684,18208,69,-798,6797,2024-01-24 10:19:38,0.0
5144,-524,16136,-55,302,4795,2024-01-24 10:19:38,0.0
8692,0,17708,-446,3032,1405,2024-01-24 10:19:38,0.0
6984,-324,19612,279,708,-1650,2024-01-24 10:19:38,0.0
5656,-272,20592,101,-2657,-2006,2024-01-24 10:19:38,0.0
5912,972,17424,-740,-3886,-2830,2024-01-24 10:19:38,0.0
3516,-96,17612,-481,1067,-3851,2024-01-24 10:19:38,0.0
-1096,-752,22412,1634,235,-407,2024-01-24 10:19:38,0.0
4076,-424,21492,3387,-548,236,2024-01-24 10:19:38,0.0
5832,-1120,18888,4251,1817,-1110,2024-01-24 10:19:38,0.0
7576,-928,19692,5504,9168,-2524,2024-01-24 10:19:38,0.0
-704,-4184,27628,9903,10040,-1833,2024-01-24 10:19:38,0.0
3568,-152,16888,8241,-1336,-1972,2024-01-24 10:19:38,0.0
-884,1932,15728,7087,-6529,-1875,2024-01-24 10:19:39,0.0
-1788,6268,9412,2936,-5190,150,2024-01-24 10:19:39,0.0
1156,2620,18900,-446,2791,1938,2024-01-24 10:19:39,0.0
6932,-4600,28796,7509,19259,1370,2024-01-24 10:19:39,0.0
2628,-4896,22296,6060,7824,1412,2024-01-24 10:19:39,0.0
2064,-3696,21764,5937,-6974,-362,2024-01-24 10:19:39,0.0
3728,4848,12308,918,-11689,-1836,2024-01-24 10:19:39,0.0
1560,2392,23796,4306,-6584,-1138,2024-01-24 10:19:39,0.0
2616,3372,17276,1431,-15363,-1194,2024-01-24 10:19:39,0.0
7580,5896,14224,-2199,-23107,-5050,2024-01-24 10:19:39,0.0
3964,-992,21444,-4574,-24752,-8455,2024-01-24 10:19:39,0.0
4056,2580,16904,-3329,-11864,-8411,2024-01-24 10:19:39,0.0
2116,6708,16308,-5504,-8209,-10476,2024-01-24 10:19:39,0.0
9368,4936,16668,-10256,-22018,-13772,2024-01-24 10:19:39,0.0
16736,396,11604,-13684,5495,-17858,2024-01-24 10:19:39,0.0
-108,-1300,11664,-21681,32767,-15457,2024-01-24 10:19:39,0.0
4212,-9440,21256,-15733,32767,-13965,2024-01-24 10:19:39,0.0
188,-10832,24548,6653,32767,-9023,2024-01-24 10:19:39,0.0
10184,1624,-1328,10351,29420,-9000,2024-01-24 10:19:39,0.0
-5516,12160,15996,-3736,-2320,-4428,2024-01-24 10:19:39,0.0
-548,7320,32767,-3186,-18946,1212,2024-01-24 10:19:39,0.0
6200,976,31604,3151,-18223,-940,2024-01-24 10:19:39,0.0
104,-4736,14412,1932,-24663,-2824,2024-01-24 10:19:39,0.0
-92,-3292,12360,-1948,-30624,-780,2024-01-24 10:19:39,0.0
7876,7064,11276,-7296,-28308,-2221,2024-01-24 10:19:39,0.0
17032,9956,8188,-16449,-24959,-6284,2024-01-24 10:19:39,0.0
13188,-9648,32767,-19756,-13757,-11481,2024-01-24 10:19:39,0.0
13288,-18664,12936,2636,6756,-12002,2024-01-24 10:19:39,0.0
-10292,3960,-2416,520,-17375,-12562,2024-01-24 10:19:39,0.0
-8460,5612,5632,2001,-32768,-4988,2024-01-24 10:19:39,0.0
4716,4112,25080,1598,-22261,-1092,2024-01-24 10:19:39,0.0
17200,5876,21648,1908,9364,-427,2024-01-24 10:19:39,0.0
12196,-2856,28240,3354,16957,-5021,2024-01-24 10:19:39,0.0
12800,-9060,12612,2261,12150,-6610,2024-01-24 10:19:39,0.0
7104,-4508,17868,-826,871,-6399,2024-01-24 10:19:39,0.0
10400,764,22432,1045,6135,-6899,2024-01-24 10:19:39,0.0
8504,6144,10852,-1938,2090,-6555,2024-01-24 10:19:39,0.0
6228,10888,2508,-9580,-7368,-5830,2024-01-24 10:19:39,0.0
3656,14472,8268,-15851,-6419,-4204,2024-01-24 10:19:39,0.0
-7844,6032,3304,-10595,22186,-7335,2024-01-24 10:19:39,0.0
332,-5904,5700,-7229,32767,-5605,2024-01-24 10:19:39,0.0
7248,-11764,17556,-6694,32767,-6831,2024-01-24 10:19:39,0.0
6632,-11248,32767,3153,2877,-7414,2024-01-24 10:19:39,0.0
8468,-7424,20188,-319,4933,-10304,2024-01-24 10:19:39,0.0
7284,-4576,13332,792,662,-12618,2024-01-24 10:19:39,0.0
7736,-5108,16144,622,1048,-12777,2024-01-24 10:19:39,0.0
5300,-4772,17008,39,-220,-12145,2024-01-24 10:19:39,0.0
-2980,-2728,18424,-1656,2657,-8329,2024-01-24 10:19:39,0.0
-2040,-2136,20376,-1257,-1140,-5649,2024-01-24 10:19:39,
1032,-3344,17216,-684,-658,-4562,2024-01-24 10:19:39,0.0
-136,-4968,16324,789,4016,-2773,2024-01-24 10:19:39,0.0
-440,-192,22344,3229,-1594,-1326,2024-01-24 10:19:39,0.0
1292,-40,18168,2702,-2408,59,2024-01-24 10:19:39,0.0
2864,1156,17832,1094,-561,742,2024-01-24 10:19:39,0.0
3560,1496,18704,310,118,304,2024-01-24 10:19:39,0.0
4104,1820,19104,204,-535,-208,2024-01-24 10:19:39,0.0
4028,-1064,18572,-36,-491,-210,2024-01-24 10:19:39,0.0
3552,-808,18432,50,10,-229,2024-01-24 10:19:39,0.0
3712,-352,18052,474,211,-290,2024-01-24 10:19:39,0.0
4812,-1180,19344,1402,-1778,-3,2024-01-24 10:19:39,0.0
4884,-1376,14808,1422,2803,-1197,2024-01-24 10:19:40,0.0
3864,-3028,19560,488,4836,-880,2024-01-24 10:19:40,0.0
7008,-3600,20776,1646,-2599,-1933,2024-01-24 10:19:40,0.0
5020,972,18304,1024,1614,-3685,2024-01-24 10:19:40,0.0
1572,2028,22876,2438,-31,-4549,2024-01-24 10:19:40,0.0
-5584,2256,14916,906,2343,-545,2024-01-24 10:19:40,0.0
-84,-44,20904,186,-2056,584,2024-01-24 10:19:40,0.0
4916,-1428,18744,412,342,-371,2024-01-24 10:19:40,0.0
3340,1376,17640,947,1850,1067,2024-01-24 10:19:40,0.0
5460,-1156,19052,717,2230,1226,2024-01-24 10:19:40,0.0
5224,-812,18696,399,1197,394,2024-01-24 10:19:40,0.0
4156,-208,17992,336,708,-146,2024-01-24 10:19:40,0.0
2116,56,19112,95,-211,-49,2024-01-24 10:19:40,0.0
880,-192,17276,-827,-1840,1797,2024-01-24 10:19:40,0.0
2896,96,17844,-1842,-3097,2726,2024-01-24 10:19:40,0.0
4352,48,18660,-2668,-5203,2328,2024-01-24 10:19:40,0.0
5108,1048,17880,-507,-5828,3174,2024-01-24 10:19:40,0.0
5736,176,18240,-397,-8887,1459,2024-01-24 10:19:40,0.0
3384,-252,17056,-398,-6551,-701,2024-01-24 10:19:40,0.0
1936,-40,17636,-394,-2596,-891,2024-01-24 10:19:40,0.0
1816,4368,20260,-657,-3144,-447,2024-01-24 10:19:40,0.0
9024,5828,22396,-1309,-10605,-3130,2024-01-24 10:19:40,0.0
11428,-1772,22472,-1102,-22698,-6097,2024-01-24 10:19:40,0.0
21308,-4112,21204,-4393,-32768,-10821,2024-01-24 10:19:40,0.0
8164,-5448,17412,-8644,-32768,-10986,2024-01-24 10:19:40,0.0
2140,-720,16172,-10197,-32768,-2081,2024-01-24 10:19:40,0.0
13284,-3944,14792,-8746,-32768,906,2024-01-24 10:19:40,0.0
16348,-5104,18436,-7845,-32768,-1411,2024-01-24 10:19:40,0.0
15012,-3528,17352,-5411,-32768,2498,2024-01-24 10:19:40,0.0
16692,-1704,12508,-5214,-29863,5924,2024-01-24 10:19:40,0.0
16444,-4680,11968,-8202,-26297,8377,2024-01-24 10:19:40,0.0
14148,-5408,13928,-11170,-20313,14545,2024-01-24 10:19:40,0.0
16664,-8240,13924,-9578,-13909,17854,2024-01-24 10:19:40,0.0
14188,-6852,11972,-8076,-10507,18947,2024-01-24 10:19:40,0.0
10860,-8180,11956,-4449,-7200,21761,2024-01-24 10:19:40,0.0
12868,-10348,7448,-3271,-2438,23554,2024-01-24 10:19:40,0.0
13156,-9104,5508,-5106,-3009,20914,2024-01-24 10:19:40,0.0
10644,-8296,8344,-4183,-3275,14799,2024-01-24 10:19:40,0.0
11764,-6576,3672,-1269,613,7113,2024-01-24 10:19:40,0.0
10792,-9184,9652,2817,8093,-1885,2024-01-24 10:19:40,0.0
16092,-6552,11524,6105,14028,-14338,2024-01-24 10:19:40,0.0
12184,2852,8516,-674,-649,-13670,2024-01-24 10:19:40,0.0
18416,-1880,-272,6071,-15686,7037,2024-01-24 10:19:40,0.0
29432,-6172,17428,17695,15888,14549,2024-01-24 10:19:40,0.0
28616,-2428,16200,23221,22577,8608,2024-01-24 10:19:40,0.0
22880,-10452,4564,17765,25223,3021,2024-01-24 10:19:40,0.0
24000,-10364,7744,13654,6247,-5894,2024-01-24 10:19:40,0.0
21960,-10480,5492,7204,-9002,-14570,2024-01-24 10:19:40,0.0
16488,-7748,9876,3163,-6451,-18893,2024-01-24 10:19:40,0.0
14624,-6324,14476,2743,-3742,-18803,2024-01-24 10:19:40,0.0
5448,40,13220,1667,649,-13555,2024-01-24 10:19:40,0.0
16048,-2148,11456,-249,-9343,-12984,2024-01-24 10:19:40,0.0
10708,-788,17216,847,-3804,-10589,2024-01-24 10:19:40,0.0
17776,-2372,6756,2915,-6153,-10212,2024-01-24 10:19:40,0.0
11464,-2024,9720,-2428,-6176,-12807,2024-01-24 10:19:40,0.0
18300,-176,5476,-719,1457,-9973,2024-01-24 10:19:40,0.0
14412,-60,-5540,-11754,4274,-13556,2024-01-24 10:19:40,0.0
3740,-2144,10404,-14299,2204,-7743,2024-01-24 10:19:40,0.0
11528,-584,19976,-12609,-1248,-3190,2024-01-24 10:19:40,0.0
10596,1316,20264,-4270,-557,-1481,2024-01-24 10:19:40,0.0
13292,2424,17276,1450,1597,-1735,2024-01-24 10:19:41,0.0
12576,4572,16436,6947,7251,-2494,2024-01-24 10:19:41,0.0
14380,5952,11340,9425,13545,-2957,2024-01-24 10:19:41,0.0
19752,8024,3620,6141,20613,-5376,2024-01-24 10:19:41,0.0
18692,6040,4340,540,26852,-6801,2024-01-24 10:19:41,0.0
15168,1980,7284,-2717,28005,-5235,2024-01-24 10:19:41,0.0
16884,396,17928,860,19778,-5761,2024-01-24 10:19:41,0.0
15540,-924,22544,4082,7558,-9076,2024-01-24 10:19:41,0.0
11600,-6360,22860,6579,8880,-8436,2024-01-24 10:19:41,0.0
4560,-5640,22048,7680,16009,-5311,2024-01-24 10:19:41,0.0
5740,-152,17332,6903,11903,-2088,2024-01-24 10:19:41,0.0
8964,1308,11428,2946,8213,88,2024-01-24 10:19:41,0.0
10940,-240,10424,-2249,9020,735,2024-01-24 10:19:41,0.0
12116,448,14128,-5643,11011,886,2024-01-24 10:19:41,0.0
13664,636,18528,-6088,11725,2,2024-01-24 10:19:41,0.0
13604,-792,19836,-4665,9913,-1387,2024-01-24 10:19:41,0.0
12376,-2904,21964,-340,4887,-2127,2024-01-24 10:19:41,0.0
11692,-2364,19628,5139,-3726,-2851,2024-01-24 10:19:41,0.0
8004,-1360,15000,3510,-1663,-2743,2024-01-24 10:19:41,0.0
6152,-280,14504,3049,11211,321,2024-01-24 10:19:41,0.0
7344,-548,13676,1150,16132,2613,2024-01-24 10:19:41,0.0
9192,-868,15668,-337,12354,3432,2024-01-24 10:19:41,0.0
10900,-300,17324,195,7022,2442,2024-01-24 10:19:41,0.0
11408,908,17284,652,5753,858,2024-01-24 10:19:41,0.0
10484,88,16444,919,9051,-146,2024-01-24 10:19:41,0.0
8584,-1428,16620,277,9727,15,2024-01-24 10:19:41,0.0
7512,-448,19140,-800,4862,556,2024-01-24 10:19:41,0.0
7972,568,20540,200,3747,289,2024-01-24 10:19:41,0.0
8060,340,19456,2458,5496,223,2024-01-24 10:19:41,
8364,-32,16780,3740,9082,291,2024-01-24 10:19:41,0.0
8744,-44,14600,4121,13238,-5,2024-01-24 10:19:41,0.0
7676,176,14336,4008,14591,279,2024-01-24 10:19:41,0.0
6320,276,13308,3975,16004,677,2024-01-24 10:19:41,0.0
5156,1320,11556,1828,17335,980,2024-01-24 10:19:41,0.0
4132,2088,11836,-790,17927,1139,2024-01-24 10:19:41,0.0
4384,1688,12832,-2650,20180,1566,2024-01-24 10:19:41,0.0
3556,1624,14660,-2456,27284,1449,2024-01-24 10:19:41,0.0
2520,1080,14952,-3093,32095,878,2024-01-24 10:19:41,0.0
-692,164,17156,-4421,25720,1312,2024-01-24 10:19:41,0.0
-2064,-2476,16132,-7096,13250,1539,2024-01-24 10:19:41,0.0
-264,-1088,15120,-9636,7839,2781,2024-01-24 10:19:41,0.0
3032,1228,16880,-10730,14509,1876,2024-01-24 10:19:41,0.0
-788,-212,22732,-10317,16759,-124,2024-01-24 10:19:41,0.0
-2160,-2316,26828,-8447,13302,-346,2024-01-24 10:19:41,0.0
-2636,-2608,29132,-4578,8544,168,2024-01-24 10:19:41,0.0
-1460,-1824,30800,1081,7020,453,2024-01-24 10:19:41,0.0
-2004,-896,30004,6782,8337,-286,2024-01-24 10:19:41,0.0
-5084,-856,27068,10504,6376,-256,2024-01-24 10:19:41,0.0
-8520,-1056,23592,11912,5897,1603,2024-01-24 10:19:41,0.0
-9852,-2192,22864,13142,4708,4673,2024-01-24 10:19:41,0.0
-4632,-1832,23056,15270,2303,5968,2024-01-24 10:19:41,0.0
2584,-4416,384,12433,-1960,4847,2024-01-24 10:19:41,0.0
712,-1220,11480,9289,638,3138,2024-01-24 10:19:41,0.0
-480,-136,12900,4361,-4345,919,2024-01-24 10:19:41,0.0
-20096,-916,32767,4189,-16858,3594,2024-01-24 10:19:41,0.0
-8200,3256,24340,4810,-27323,4703,2024-01-24 10:19:41,0.0
-2424,4208,24364,7770,-29477,5999,2024-01-24 10:19:41,0.0
3800,2128,20248,12245,-24939,2531,2024-01-24 10:19:41,0.0
-3460,668,23644,13501,-32768,3155,2024-01-24 10:19:41,0.0
-5408,-940,26956,15938,-32768,4779,2024-01-24 10:19:41,0.0
-7220,-836,27200,21746,-32768,8219,2024-01-24 10:19:42,0.0
-2868,140,21804,24589,-32768,12035,2024-01-24 10:19:42,0.0
3884,1776,13648,24955,-32768,12138,2024-01-24 10:19:42,0.0
8244,3732,11620,23922,-32768,10403,2024-01-24 10:19:42,0.0
6808,5512,656,19390,-32768,8729,2024-01-24 10:19:42,0.0
8548,2468,3056,12844,-32768,8255,2024-01-24 10:19:42,0.0
10152,3512,4296,11746,-32768,8128,2024-01-24 10:19:42,0.0
11692,6800,2600,11429,-32768,7645,2024-01-24 10:19:42,0.0
15592,8964,1364,11132,-28730,5653,2024-01-24 10:19:42,0.0
14984,9356,4276,12436,-17306,3897,2024-01-24 10:19:42,0.0
16104,10096,4236,14539,-8088,2282,2024-01-24 10:19:42,0.0
10544,11320,4688,15198,-8586,3142,2024-01-24 10:19:42,0.0
10632,10796,3860,14050,-16193,6338,2024-01-24 10:19:42,0.0
13288,7104,2432,14259,-21674,7012,2024-01-24 10:19:42,0.0
17768,6468,2192,14835,-18359,6168,2024-01-24 10:19:42,0.0
16756,6652,2656,15773,-13688,4436,2024-01-24 10:19:42,0.0
16580,7080,2684,17204,-9186,3876,2024-01-24 10:19:42,0.0
16728,7364,2608,19154,-4077,3260,2024-01-24 10:19:42,0.0
15476,6720,1496,20679,-265,3836,2024-01-24 10:19:42,0.0
16692,6780,-1796,20256,-3837,4703,2024-01-24 10:19:42,0.0
16264,6056,1464,21508,-5296,5881,2024-01-24 10:19:42,0.0
13416,6324,2924,23723,-5396,8050,2024-01-24 10:19:42,0.0
14960,5268,1848,25448,-4635,9628,2024-01-24 10:19:42,0.0
15796,3272,3400,28473,-12410,10981,2024-01-24 10:19:42,0.0
16644,1148,-2100,29365,-19065,12125,2024-01-24 10:19:42,0.0
17108,268,-7868,28137,-22721,12371,2024-01-24 10:19:42,0.0
18236,320,-9080,27399,-26535,11555,2024-01-24 10:19:42,0.0
17432,856,-7836,27900,-24906,8964,2024-01-24 10:19:42,0.0
15044,-632,-7760,27218,-18357,8125,2024-01-24 10:19:42,0.0
14736,-2984,-7692,26883,-20504,8324,2024-01-24 10:19:42,0.0
16828,-4724,-9620,25558,-26731,8389,2024-01-24 10:19:42,0.0
16692,-4864,-14000,23490,-24597,6426,2024-01-24 10:19:42,0.0
16696,-4616,-16120,19945,-19581,4555,2024-01-24 10:19:42,0.0
16024,-4296,-16520,15288,-18135,2377,2024-01-24 10:19:42,0.0
