acceleration_x,acceleration_y,acceleration_z,gyroscope_x,gyroscope_y,gyroscope_z,timestamp,label
2620,-236,19000,-172,188,-187,2024-01-18 09:47:41,0.0
2688,-244,18952,-162,170,-163,2024-01-18 09:47:41,0.0
2668,-216,18872,-179,210,-185,2024-01-18 09:47:41,0.0
2652,-212,19112,-181,200,-196,2024-01-18 09:47:41,0.0
2592,-180,18912,-158,181,-175,2024-01-18 09:47:41,0.0
2732,-188,18940,-160,176,-187,2024-01-18 09:47:41,0.0
2680,-220,19196,-157,189,-187,2024-01-18 09:47:41,0.0
2644,-128,18824,-170,191,-184,2024-01-18 09:47:41,0.0
2672,-288,18964,-177,215,-189,2024-01-18 09:47:41,0.0
2712,-220,18772,-177,181,-189,2024-01-18 09:47:41,0.0
2664,-328,19064,-166,173,-186,2024-01-18 09:47:41,0.0
2560,-236,18924,-164,207,-185,2024-01-18 09:47:41,0.0
2696,-252,18964,-177,188,-200,2024-01-18 09:47:41,0.0
2664,-260,19112,-165,210,-180,2024-01-18 09:47:41,0.0
2672,-212,18924,-171,189,-182,2024-01-18 09:47:41,0.0
2736,-284,18964,-172,200,-188,2024-01-18 09:47:41,0.0
2812,-200,18884,-150,178,-175,2024-01-18 09:47:41,0.0
2748,-236,19088,-159,165,-190,2024-01-18 09:47:41,0.0
2688,-208,19032,-156,158,-194,2024-01-18 09:47:41,0.0
2644,-176,18972,-176,189,-188,2024-01-18 09:47:41,0.0
2664,-272,18980,-173,194,-205,2024-01-18 09:47:41,0.0
2664,-288,19068,-161,205,-194,2024-01-18 09:47:41,0.0
2696,-240,18884,-168,195,-196,2024-01-18 09:47:41,0.0
2652,-160,18960,-172,182,-204,2024-01-18 09:47:41,0.0
2672,-308,19104,-168,203,-198,2024-01-18 09:47:41,0.0
2724,-212,18880,-173,179,-172,2024-01-18 09:47:41,0.0
2660,-176,18980,-163,174,-190,2024-01-18 09:47:41,0.0
2756,-244,18920,-167,198,-161,2024-01-18 09:47:41,0.0
2696,-128,18964,-153,204,-182,2024-01-18 09:47:41,0.0
2720,-148,19076,-162,204,-179,2024-01-18 09:47:41,0.0
2676,-280,19044,-145,216,-171,2024-01-18 09:47:41,0.0
2628,-180,19088,-169,198,-172,2024-01-18 09:47:41,0.0
2720,-228,18832,-175,214,-175,2024-01-18 09:47:41,0.0
2720,-244,18860,-182,199,-170,2024-01-18 09:47:41,0.0
2716,-176,18948,-168,203,-176,2024-01-18 09:47:41,0.0
2652,-256,18936,-154,176,-194,2024-01-18 09:47:41,0.0
2656,-196,19060,-149,205,-196,2024-01-18 09:47:41,0.0
2584,-196,18916,-171,190,-157,2024-01-18 09:47:41,0.0
2708,-220,19048,-173,183,-211,2024-01-18 09:47:41,0.0
2688,-324,18952,-177,199,-198,2024-01-18 09:47:41,0.0
2648,-188,18888,-163,182,-174,2024-01-18 09:47:41,0.0
2656,-204,19000,-170,199,-191,2024-01-18 09:47:41,0.0
2748,-256,18992,-160,201,-199,2024-01-18 09:47:41,0.0
2664,-120,18992,-158,195,-189,2024-01-18 09:47:41,0.0
2732,-200,18996,-156,185,-178,2024-01-18 09:47:41,0.0
2748,-208,19020,-169,203,-181,2024-01-18 09:47:41,0.0
2664,-180,19008,-145,176,-186,2024-01-18 09:47:41,0.0
2784,-148,18928,-177,183,-182,2024-01-18 09:47:41,0.0
2756,-236,18896,-157,169,-197,2024-01-18 09:47:41,0.0
2712,-172,18956,-146,189,-188,2024-01-18 09:47:41,0.0
2604,-288,18868,-146,174,-192,2024-01-18 09:47:41,0.0
2696,-176,19040,-172,193,-170,2024-01-18 09:47:41,0.0
2636,-176,18972,-150,189,-192,2024-01-18 09:47:41,0.0
2660,-244,19068,-163,192,-199,2024-01-18 09:47:41,0.0
2544,-252,19040,-170,209,-171,2024-01-18 09:47:42,0.0
2652,-228,18876,-182,188,-183,2024-01-18 09:47:42,0.0
2700,-200,19016,-163,210,-185,2024-01-18 09:47:42,0.0
2652,-232,19028,-189,181,-180,2024-01-18 09:47:42,0.0
2708,-184,19020,-173,196,-177,2024-01-18 09:47:42,0.0
2688,-320,19008,-139,193,-198,2024-01-18 09:47:42,0.0
2772,-124,18888,-166,192,-163,2024-01-18 09:47:42,0.0
2660,-196,18996,-153,192,-177,2024-01-18 09:47:42,0.0
2692,-260,18876,-166,174,-198,2024-01-18 09:47:42,0.0
2704,-228,18912,-156,168,-174,2024-01-18 09:47:42,0.0
2708,-268,18976,-162,196,-181,2024-01-18 09:47:42,0.0
2620,-184,18956,-158,188,-178,2024-01-18 09:47:42,0.0
2716,-208,18976,-181,188,-184,2024-01-18 09:47:42,0.0
2812,-172,19064,-168,196,-188,2024-01-18 09:47:42,0.0
2708,-372,19020,-185,197,-189,2024-01-18 09:47:42,0.0
2620,-196,18968,-206,192,-189,2024-01-18 09:47:42,0.0
2644,-124,18880,-191,188,-183,2024-01-18 09:47:42,0.0
2688,-240,19028,-168,186,-173,2024-01-18 09:47:42,0.0
2684,-220,19092,-163,184,-182,2024-01-18 09:47:42,0.0
2644,-256,19012,-112,196,-198,2024-01-18 09:47:42,0.0
2684,-288,19080,-175,194,-189,2024-01-18 09:47:42,0.0
2600,-236,19024,-168,199,-196,2024-01-18 09:47:42,0.0
2708,-196,18964,-189,195,-172,2024-01-18 09:47:42,0.0
2616,-212,18988,-175,183,-179,2024-01-18 09:47:42,0.0
2696,-224,18856,-174,187,-181,2024-01-18 09:47:42,0.0
2668,-276,18880,-164,176,-188,2024-01-18 09:47:42,0.0
2596,-312,18856,-176,200,-200,2024-01-18 09:47:42,0.0
2696,-184,19008,-157,195,-188,2024-01-18 09:47:42,0.0
2628,-200,19008,-140,194,-182,2024-01-18 09:47:42,0.0
2668,-200,19052,-176,206,-181,2024-01-18 09:47:42,0.0
2572,-208,19032,-180,188,-178,2024-01-18 09:47:42,0.0
2704,-164,19032,-170,189,-188,2024-01-18 09:47:42,0.0
2692,-216,18864,-169,189,-175,2024-01-18 09:47:42,0.0
2592,-240,18956,-155,189,-184,2024-01-18 09:47:42,0.0
2652,-332,19044,-164,195,-179,2024-01-18 09:47:42,0.0
2788,-260,19040,-162,198,-196,2024-01-18 09:47:42,0.0
2716,-260,18940,-198,210,-204,2024-01-18 09:47:42,0.0
2616,-268,18988,-148,189,-184,2024-01-18 09:47:42,0.0
2676,-200,18872,-146,187,-185,2024-01-18 09:47:42,0.0
2624,-296,19052,-155,186,-179,2024-01-18 09:47:42,0.0
2632,-260,19000,-177,200,-174,2024-01-18 09:47:42,0.0
2684,-304,18956,-161,173,-178,2024-01-18 09:47:42,0.0
2676,-104,19000,-157,212,-183,2024-01-18 09:47:42,0.0
2612,-188,18948,-161,195,-188,2024-01-18 09:47:42,0.0
2696,-136,18848,-165,171,-210,2024-01-18 09:47:42,0.0
2736,-196,19080,-152,162,-178,2024-01-18 09:47:42,
2648,-220,18896,-160,193,-189,2024-01-18 09:47:42,0.0
2708,-300,18988,-170,184,-177,2024-01-18 09:47:42,0.0
2712,-188,19056,-159,194,-165,2024-01-18 09:47:42,0.0
2704,-280,18988,-175,201,-194,2024-01-18 09:47:42,0.0
2652,-232,18864,-178,214,-166,2024-01-18 09:47:42,0.0
2856,-148,18968,-121,873,-200,2024-01-18 09:47:42,0.0
3464,-284,19200,-34,2071,-2318,2024-01-18 09:47:42,0.0
1256,-1564,18968,152,2423,-1288,2024-01-18 09:47:42,0.0
1516,-192,18696,-151,499,330,2024-01-18 09:47:42,0.0
1576,-2024,19304,-48,1190,2369,2024-01-18 09:47:42,0.0
2496,-60,19176,93,1628,3171,2024-01-18 09:47:42,0.0
2024,-764,18484,50,1341,2433,2024-01-18 09:47:42,0.0
1448,-108,18644,-240,379,2808,2024-01-18 09:47:42,0.0
2064,104,18772,-446,-717,3032,2024-01-18 09:47:43,0.0
2760,-184,19972,-244,199,2544,2024-01-18 09:47:43,0.0
276,-1272,18640,-313,302,3589,2024-01-18 09:47:43,0.0
-200,-1644,19116,-632,-1927,6827,2024-01-18 09:47:43,0.0
4532,-3796,18860,-709,-1794,8150,2024-01-18 09:47:43,0.0
10764,2976,20864,-2676,7106,2669,2024-01-18 09:47:43,0.0
6052,-512,21016,-1785,20579,-468,2024-01-18 09:47:43,0.0
3880,-1496,19316,-1156,15945,-3744,2024-01-18 09:47:43,0.0
2252,-572,17384,1240,11361,-5489,2024-01-18 09:47:43,0.0
-584,-2416,18248,4348,5655,-5171,2024-01-18 09:47:43,0.0
-4104,2372,14728,2268,-17307,-4024,2024-01-18 09:47:43,0.0
-1116,-788,15252,-315,-32768,-4233,2024-01-18 09:47:43,0.0
31676,-7816,32767,2269,14530,-3803,2024-01-18 09:47:43,0.0
1372,-960,18644,-38,189,-2774,2024-01-18 09:47:43,0.0
1600,696,19608,-157,-306,-1819,2024-01-18 09:47:43,0.0
2328,612,19584,126,1043,125,2024-01-18 09:47:43,0.0
4484,1124,18724,-296,-1601,439,2024-01-18 09:47:43,0.0
5140,1648,18360,-161,270,-464,2024-01-18 09:47:43,0.0
3288,-636,19196,-14,162,-1309,2024-01-18 09:47:43,0.0
3136,820,17904,-180,203,-2617,2024-01-18 09:47:43,0.0
1480,-840,18472,-158,269,-2414,2024-01-18 09:47:43,0.0
1376,-1180,19212,-46,275,-1805,2024-01-18 09:47:43,0.0
1572,116,19008,-159,153,-2130,2024-01-18 09:47:43,0.0
1384,1892,18688,-303,142,-1911,2024-01-18 09:47:43,0.0
748,1808,18384,-453,146,497,2024-01-18 09:47:43,0.0
-264,-8,19728,-43,213,4527,2024-01-18 09:47:43,0.0
-1876,-1812,18120,-271,186,8998,2024-01-18 09:47:43,0.0
-2856,-2576,19440,-462,-74,14363,2024-01-18 09:47:43,0.0
1652,-1400,18624,-466,101,17636,2024-01-18 09:47:43,0.0
8604,-2364,19232,-521,249,12768,2024-01-18 09:47:43,0.0
10376,1624,19576,-1787,-1039,1870,2024-01-18 09:47:43,0.0
2052,760,18956,-1759,-2345,575,2024-01-18 09:47:43,0.0
2216,-36,19576,686,-5055,2292,2024-01-18 09:47:43,0.0
2420,-2212,20748,38,-2065,5525,2024-01-18 09:47:43,0.0
4096,-3276,19696,1065,-6478,5846,2024-01-18 09:47:43,0.0
5112,-1572,18880,2351,-1585,3800,2024-01-18 09:47:43,0.0
1860,-4016,14940,1104,6994,3379,2024-01-18 09:47:43,0.0
652,-1540,17452,-1392,4831,4768,2024-01-18 09:47:43,0.0
1660,2312,25844,-948,2010,4484,2024-01-18 09:47:43,0.0
2932,436,16928,-246,107,5457,2024-01-18 09:47:43,0.0
5496,-16,18168,-1741,5752,5837,2024-01-18 09:47:43,0.0
6632,1324,20444,-2360,593,2697,2024-01-18 09:47:43,0.0
6520,-452,21236,-2502,-6236,220,2024-01-18 09:47:43,0.0
7604,-1332,23216,-2434,-4970,-1809,2024-01-18 09:47:43,0.0
5836,-1192,25004,-938,-3375,-4099,2024-01-18 09:47:43,0.0
5444,-2564,26720,1008,3316,-4273,2024-01-18 09:47:43,0.0
4756,-1976,27172,4269,2339,-4844,2024-01-18 09:47:43,0.0
3080,-2216,27036,6596,732,-4914,2024-01-18 09:47:43,0.0
2028,-1884,27008,9974,511,-3892,2024-01-18 09:47:43,0.0
660,-1112,25192,13367,418,-2635,2024-01-18 09:47:43,0.0
912,-664,22692,15301,1631,-538,2024-01-18 09:47:43,0.0
2620,-184,20616,15692,3560,1024,2024-01-18 09:47:43,0.0
5492,364,18616,13375,6835,145,2024-01-18 09:47:43,0.0
2964,1140,19096,10451,3573,-1645,2024-01-18 09:47:43,0.0
1640,-52,19140,10626,2741,-212,2024-01-18 09:47:43,0.0
4928,1372,15940,9734,3441,-3,2024-01-18 09:47:43,0.0
4580,1836,15552,8861,1647,-2862,2024-01-18 09:47:43,0.0
-252,2892,13708,10547,3956,-3604,2024-01-18 09:47:43,0.0
-2552,3932,11084,10569,2001,-1732,2024-01-18 09:47:43,0.0
-1780,4912,9436,9326,-2454,18,2024-01-18 09:47:44,0.0
-540,4796,7212,8239,-2983,1206,2024-01-18 09:47:44,0.0
216,4536,6072,6976,-1521,1708,2024-01-18 09:47:44,0.0
284,4952,5220,4969,-1036,2693,2024-01-18 09:47:44,0.0
3116,6260,4692,2190,-2402,2723,2024-01-18 09:47:44,0.0
5340,6748,5240,-451,-2230,340,2024-01-18 09:47:44,0.0
2468,7772,6584,-2603,-3226,-2228,2024-01-18 09:47:44,0.0
-2928,6620,9368,-5790,-14612,-1560,2024-01-18 09:47:44,0.0
2352,5140,10552,-5685,-20205,119,2024-01-18 09:47:44,0.0
6024,5196,10064,-6833,-17505,-803,2024-01-18 09:47:44,0.0
5944,6596,10088,-11246,-5712,-1404,2024-01-18 09:47:44,0.0
1992,4936,17220,-18076,1452,-211,2024-01-18 09:47:44,0.0
3872,3492,25196,-20624,-1262,2096,2024-01-18 09:47:44,0.0
7512,748,30020,-19126,-2543,2259,2024-01-18 09:47:44,0.0
10012,128,32612,-16101,-1430,1487,2024-01-18 09:47:44,0.0
11140,-168,32767,-12480,-784,-1712,2024-01-18 09:47:44,0.0
6872,448,32767,-6593,4139,-2894,2024-01-18 09:47:44,0.0
4376,336,32767,43,6034,-2685,2024-01-18 09:47:44,0.0
2472,156,32767,6355,6178,-1430,2024-01-18 09:47:44,0.0
2428,92,32767,10947,3046,281,2024-01-18 09:47:44,0.0
2596,-432,28672,12953,-642,1041,2024-01-18 09:47:44,0.0
4184,392,24556,15528,2443,2797,2024-01-18 09:47:44,0.0
6104,712,20296,15474,6983,2796,2024-01-18 09:47:44,0.0
7036,1344,17648,14608,9683,2014,2024-01-18 09:47:44,0.0
6392,2248,15852,13799,9733,155,2024-01-18 09:47:44,0.0
3692,2524,13904,14067,9666,-906,2024-01-18 09:47:44,0.0
888,3224,11960,14911,8424,-808,2024-01-18 09:47:44,0.0
400,3608,9132,16027,4110,-80,2024-01-18 09:47:44,
444,4436,6124,15831,3350,311,2024-01-18 09:47:44,0.0
904,5392,3396,14540,2478,662,2024-01-18 09:47:44,0.0
1772,5884,1048,12465,3730,656,2024-01-18 09:47:44,0.0
1628,5508,-1784,8576,5679,468,2024-01-18 09:47:44,0.0
268,6016,-3528,2960,1348,1260,2024-01-18 09:47:44,0.0
1112,5952,-4116,-4076,-4817,2517,2024-01-18 09:47:44,0.0
2244,5680,-1752,-12904,-9950,3033,2024-01-18 09:47:44,0.0
5472,3924,3884,-20432,-7140,3039,2024-01-18 09:47:44,0.0
5784,2836,11680,-24815,-3418,1399,2024-01-18 09:47:44,0.0
4708,1816,21332,-26826,-392,-25,2024-01-18 09:47:44,0.0
4044,476,29472,-23869,-493,62,2024-01-18 09:47:44,0.0
3372,1200,32767,-17860,-2364,-551,2024-01-18 09:47:44,0.0
1984,2236,32767,-10575,-5382,-330,2024-01-18 09:47:44,0.0
1580,3404,32767,-3160,-3187,862,2024-01-18 09:47:44,0.0
844,3496,31400,1927,-1459,1874,2024-01-18 09:47:44,0.0
724,4052,25320,4908,599,3428,2024-01-18 09:47:44,0.0
1592,4792,21296,4788,799,4941,2024-01-18 09:47:44,0.0
3828,5304,18692,3488,1747,5111,2024-01-18 09:47:44,0.0
4312,5680,17520,1241,345,4208,2024-01-18 09:47:44,0.0
4584,6048,16692,-582,2033,3736,2024-01-18 09:47:44,0.0
4100,5148,16688,-2230,887,3422,2024-01-18 09:47:44,0.0
4916,4864,17068,-3345,156,2749,2024-01-18 09:47:44,0.0
5024,4360,18100,-3052,180,2628,2024-01-18 09:47:44,0.0
6360,4424,17712,-3176,-1446,1662,2024-01-18 09:47:44,0.0
6612,4004,17660,-3527,-3819,130,2024-01-18 09:47:44,0.0
4972,4036,16724,-4252,-4559,-729,2024-01-18 09:47:44,0.0
3372,4096,16316,-5321,-3415,-595,2024-01-18 09:47:44,0.0
1788,3168,17040,-5911,-1404,679,2024-01-18 09:47:44,0.0
1144,2212,17816,-6115,-590,2517,2024-01-18 09:47:44,0.0
3112,2164,18616,-6339,-1951,3701,2024-01-18 09:47:44,0.0
4832,1048,20268,-6067,-416,4040,2024-01-18 09:47:44,0.0
5500,956,21832,-4810,1613,3159,2024-01-18 09:47:44,0.0
3632,564,22872,-2656,1994,2518,2024-01-18 09:47:45,0.0
1064,500,22464,-223,2301,3304,2024-01-18 09:47:45,0.0
544,180,21168,1646,1223,5332,2024-01-18 09:47:45,0.0
1784,492,18892,2401,-80,7193,2024-01-18 09:47:45,0.0
3320,288,16876,1859,-1861,8220,2024-01-18 09:47:45,0.0
5380,812,15112,-16,-415,7511,2024-01-18 09:47:45,0.0
5308,-504,15036,-1435,2477,7437,2024-01-18 09:47:45,0.0
5940,256,15900,-2336,5151,7144,2024-01-18 09:47:45,0.0
5440,-92,15720,-4009,5453,6309,2024-01-18 09:47:45,0.0
4452,340,15968,-5425,4815,5744,2024-01-18 09:47:45,0.0
3336,372,15148,-7420,5687,5205,2024-01-18 09:47:45,0.0
3304,-580,14160,-9677,3582,4310,2024-01-18 09:47:45,0.0
2940,-1780,14112,-11837,4279,4905,2024-01-18 09:47:45,0.0
-7172,-9324,32767,3047,-6824,4356,2024-01-18 09:47:45,0.0
3064,-1804,17236,-95,-229,2378,2024-01-18 09:47:45,0.0
4344,-176,17804,-793,508,1466,2024-01-18 09:47:45,0.0
3536,384,18504,-518,72,881,2024-01-18 09:47:45,0.0
2140,72,19596,-517,-302,839,2024-01-18 09:47:45,0.0
1840,88,19352,-212,286,1556,2024-01-18 09:47:45,0.0
804,404,18844,-695,-36,3599,2024-01-18 09:47:45,0.0
3520,-112,19432,-266,-44,3050,2024-01-18 09:47:45,0.0
3464,-836,18924,-204,221,2391,2024-01-18 09:47:45,0.0
2364,-1168,19044,-171,298,3199,2024-01-18 09:47:45,0.0
2116,-1440,18940,-171,235,4060,2024-01-18 09:47:45,0.0
2344,-1808,19040,-124,95,4372,2024-01-18 09:47:45,0.0
3752,-2024,18912,-367,38,3119,2024-01-18 09:47:45,0.0
5408,-1952,19228,-289,-221,559,2024-01-18 09:47:45,0.0
3004,-1244,18888,-72,514,-733,2024-01-18 09:47:45,0.0
3384,-176,19008,-65,412,-1619,2024-01-18 09:47:45,0.0
2940,368,18896,-79,245,-1818,2024-01-18 09:47:45,0.0
2252,-364,18940,-154,214,-1371,2024-01-18 09:47:45,0.0
2084,-268,19000,-137,173,-778,2024-01-18 09:47:45,0.0
2312,-224,19020,-161,184,-185,2024-01-18 09:47:45,0.0
3056,-176,18656,-136,356,-179,2024-01-18 09:47:45,0.0
3236,-188,18476,-165,375,-164,2024-01-18 09:47:45,0.0
3064,-208,18536,-172,67,-214,2024-01-18 09:47:45,0.0
2376,-452,19132,-161,74,-188,2024-01-18 09:47:45,0.0
2672,-292,19080,-167,188,-187,2024-01-18 09:47:45,0.0
2620,-264,18908,-130,223,-178,2024-01-18 09:47:45,0.0
2776,-300,18916,-171,188,-180,2024-01-18 09:47:45,0.0
2728,-336,18996,-156,194,-181,2024-01-18 09:47:45,0.0
2600,-280,18928,-136,184,-163,2024-01-18 09:47:45,0.0
2648,-264,18996,-189,190,-196,2024-01-18 09:47:45,0.0
2664,-260,19020,-147,176,-182,2024-01-18 09:47:45,0.0
2704,-300,18952,-172,189,-195,2024-01-18 09:47:45,0.0
2628,-280,18928,-189,203,-183,2024-01-18 09:47:45,0.0
2640,-308,19120,-153,170,-190,2024-01-18 09:47:45,0.0
2648,-248,18868,-159,171,-219,2024-01-18 09:47:45,0.0
2632,-300,18892,-158,193,-185,2024-01-18 09:47:45,0.0
2580,-316,18956,-160,203,-172,2024-01-18 09:47:45,0.0
2668,-184,18960,-164,181,-190,2024-01-18 09:47:45,0.0
2532,-240,19048,-182,196,-176,2024-01-18 09:47:45,0.0
2568,-344,18948,-157,180,-184,2024-01-18 09:47:45,0.0
2596,-268,18980,-169,195,-196,2024-01-18 09:47:45,0.0
2652,-244,19036,-176,181,-179,2024-01-18 09:47:45,0.0
2644,-256,18952,-169,178,-185,2024-01-18 09:47:45,0.0
2604,-332,19060,-149,180,-169,2024-01-18 09:47:45,0.0
2636,-260,18988,-175,188,-202,2024-01-18 09:47:45,0.0
2684,-312,18880,-184,184,-181,2024-01-18 09:47:45,0.0
2660,-280,18936,-164,172,-182,2024-01-18 09:47:46,0.0
2664,-156,18880,-160,212,-190,2024-01-18 09:47:46,0.0
2644,-300,19060,-151,188,-201,2024-01-18 09:47:46,0.0
2688,-296,18852,-175,178,-189,2024-01-18 09:47:46,0.0
2652,-300,19056,-159,178,-186,2024-01-18 09:47:46,0.0
2576,-372,19056,-165,205,-190,2024-01-18 09:47:46,0.0
2672,-324,18996,-207,158,-187,2024-01-18 09:47:46,0.0
2692,-264,18912,-163,190,-196,2024-01-18 09:47:46,0.0
2676,-264,18880,-161,196,-185,2024-01-18 09:47:46,
2660,-288,18980,-178,198,-178,2024-01-18 09:47:46,0.0
2724,-312,18988,-174,200,-175,2024-01-18 09:47:46,0.0
2712,-296,18964,-157,198,-186,2024-01-18 09:47:46,0.0
2644,-236,18932,-169,198,-187,2024-01-18 09:47:46,0.0
2628,-328,18976,-152,178,-194,2024-01-18 09:47:46,0.0
2624,-268,18952,-184,217,-202,2024-01-18 09:47:46,0.0
2684,-272,19008,-176,207,-182,2024-01-18 09:47:46,0.0
2648,-332,18980,-158,188,-170,2024-01-18 09:47:46,0.0
2680,-176,18884,-162,214,-173,2024-01-18 09:47:46,0.0
2608,-276,19096,-161,178,-177,2024-01-18 09:47:46,0.0
2568,-360,19076,-157,205,-187,2024-01-18 09:47:46,0.0
2636,-304,18944,-172,185,-176,2024-01-18 09:47:46,0.0
2556,-284,19104,-159,188,-190,2024-01-18 09:47:46,0.0
2648,-272,18952,-167,192,-176,2024-01-18 09:47:46,0.0
2660,-304,18944,-177,172,-165,2024-01-18 09:47:46,0.0
2652,-272,19044,-179,180,-183,2024-01-18 09:47:46,0.0
2664,-348,19068,-161,196,-191,2024-01-18 09:47:46,0.0
2588,-224,19168,-183,177,-189,2024-01-18 09:47:46,0.0
2648,-272,18884,-183,197,-189,2024-01-18 09:47:46,0.0
2704,-280,18896,-178,183,-176,2024-01-18 09:47:46,0.0
2724,-248,19092,-166,180,-178,2024-01-18 09:47:46,0.0
2684,-332,19128,-127,205,-175,2024-01-18 09:47:46,0.0
2716,-292,19016,-192,191,-176,2024-01-18 09:47:46,0.0
2680,-348,18996,-163,183,-202,2024-01-18 09:47:46,0.0
2652,-348,19064,-175,177,-176,2024-01-18 09:47:46,0.0
2612,-240,19004,-196,169,-175,2024-01-18 09:47:46,0.0
2720,-264,18792,-157,161,-184,2024-01-18 09:47:46,0.0
2584,-284,19052,-152,198,-187,2024-01-18 09:47:46,0.0
2620,-284,18804,-153,191,-171,2024-01-18 09:47:46,0.0
2556,-272,19084,-163,191,-183,2024-01-18 09:47:46,0.0
2632,-328,18916,-163,182,-184,2024-01-18 09:47:46,0.0
2784,-316,18864,-161,183,-173,2024-01-18 09:47:46,0.0
2632,-256,18904,-183,207,-198,2024-01-18 09:47:46,0.0
2700,-328,18944,-159,183,-191,2024-01-18 09:47:46,0.0
2708,-248,19048,-151,172,-189,2024-01-18 09:47:46,0.0
2600,-288,18964,-163,196,-194,2024-01-18 09:47:46,0.0
2688,-356,19012,-160,175,-190,2024-01-18 09:47:46,0.0
2672,-264,18944,-181,191,-204,2024-01-18 09:47:46,0.0
2704,-348,19224,-159,192,-212,2024-01-18 09:47:46,0.0
2728,-252,19052,-185,215,-178,2024-01-18 09:47:46,0.0
2680,-252,19008,-177,186,-170,2024-01-18 09:47:46,0.0
2664,-360,19048,-139,176,-188,2024-01-18 09:47:46,0.0
2616,-320,18944,-162,199,-175,2024-01-18 09:47:46,0.0
2592,-344,19068,-186,178,-178,2024-01-18 09:47:46,0.0
2512,-364,18964,-180,199,-171,2024-01-18 09:47:46,0.0
2620,-244,19032,-177,188,-155,2024-01-18 09:47:46,0.0
2628,-376,19008,-156,189,-178,2024-01-18 09:47:46,0.0
2580,-348,18796,-171,199,-180,2024-01-18 09:47:46,0.0
2680,-356,18720,-140,183,-174,2024-01-18 09:47:46,0.0
2632,-320,18924,-185,194,-200,2024-01-18 09:47:46,0.0
2688,-312,18932,-140,191,-195,2024-01-18 09:47:47,0.0
2620,-284,18944,-147,175,-172,2024-01-18 09:47:47,0.0
2740,-276,18944,-152,205,-155,2024-01-18 09:47:47,0.0
2696,-296,18872,-155,184,-177,2024-01-18 09:47:47,0.0
2660,-264,19048,-165,181,-178,2024-01-18 09:47:47,0.0
2720,-376,19040,-154,189,-185,2024-01-18 09:47:47,0.0
2688,-284,18948,-167,187,-191,2024-01-18 09:47:47,0.0
2696,-264,19016,-168,191,-181,2024-01-18 09:47:47,0.0
2664,-328,18988,-161,187,-184,2024-01-18 09:47:47,0.0
2604,-308,19028,-160,192,-204,2024-01-18 09:47:47,0.0
2640,-276,18904,-169,193,-159,2024-01-18 09:47:47,0.0
2676,-296,18848,-151,178,-200,2024-01-18 09:47:47,0.0
2640,-252,19048,-135,206,-172,2024-01-18 09:47:47,0.0
2592,-316,18980,-167,185,-195,2024-01-18 09:47:47,0.0
2612,-232,18996,-162,197,-170,2024-01-18 09:47:47,0.0
2668,-272,18964,-191,191,-178,2024-01-18 09:47:47,0.0
2724,-300,18892,-146,212,-189,2024-01-18 09:47:47,0.0
2636,-304,18968,-164,184,-197,2024-01-18 09:47:47,0.0
2756,-324,18952,-177,197,-187,2024-01-18 09:47:47,0.0
2596,-248,18904,-174,178,-197,2024-01-18 09:47:47,0.0
2600,-340,19032,-160,171,-192,2024-01-18 09:47:47,0.0
2700,-228,18928,-191,184,-197,2024-01-18 09:47:47,0.0
2592,-324,18972,-156,196,-168,2024-01-18 09:47:47,0.0
2592,-336,18840,-169,189,-184,2024-01-18 09:47:47,0.0
2652,-256,19028,-142,177,-178,2024-01-18 09:47:47,0.0
2592,-284,19000,-169,194,-189,2024-01-18 09:47:47,0.0
2596,-344,18952,-155,186,-189,2024-01-18 09:47:47,0.0
2740,-332,18832,-154,190,-197,2024-01-18 09:47:47,0.0
2672,-212,18920,-187,183,-176,2024-01-18 09:47:47,0.0
2660,-348,19164,-172,202,-184,2024-01-18 09:47:47,0.0
2684,-340,18988,-185,181,-170,2024-01-18 09:47:47,0.0
2680,-264,19072,-185,178,-177,2024-01-18 09:47:47,0.0
2716,-244,19124,-175,182,-203,2024-01-18 09:47:47,0.0
2716,-228,19100,-161,178,-181,2024-01-18 09:47:47,0.0
2672,-296,19004,-171,188,-203,2024-01-18 09:47:47,0.0
2576,-264,18808,-166,174,-180,2024-01-18 09:47:47,0.0
2744,-420,18852,-148,188,-176,2024-01-18 09:47:47,0.0
2668,-308,18900,-174,178,-178,2024-01-18 09:47:47,0.0
2740,-260,19008,-141,186,-186,2024-01-18 09:47:47,0.0
2604,-272,18936,-181,204,-189,2024-01-18 09:47:47,0.0
2680,-320,18948,-160,187,-204,2024-01-18 09:47:47,0.0
2628,-280,18944,-169,168,-188,2024-01-18 09:47:47,0.0
2656,-336,18956,-144,187,-170,2024-01-18 09:47:47,0.0
2604,-356,18920,-140,176,-192,2024-01-18 09:47:47,0.0
2584,-264,18964,-155,202,-177,2024-01-18 09:47:47,0.0
2664,-320,18920,-153,192,-184,2024-01-18 09:47:47,0.0
2732,-324,19156,-172,191,-190,2024-01-18 09:47:47,0.0
2612,-252,18936,-157,188,-160,2024-01-18 09:47:47,0.0
2620,-268,18972,-146,202,-165,2024-01-18 09:47:47,0.0
2720,-284,19064,-138,186,-198,2024-01-18 09:47:47,
2624,-316,18928,-156,197,-179,2024-01-18 09:47:47,0.0
2704,-424,18952,-165,193,-190,2024-01-18 09:47:47,0.0
2672,-232,18976,-177,201,-172,2024-01-18 09:47:47,0.0
2568,-312,19000,-159,164,-186,2024-01-18 09:47:47,0.0
2656,-332,19084,-166,187,-178,2024-01-18 09:47:47,0.0
2704,-312,18924,-157,183,-173,2024-01-18 09:47:47,0.0
2636,-288,19016,-151,190,-170,2024-01-18 09:47:47,0.0
2696,-344,19084,-173,170,-183,2024-01-18 09:47:47,0.0
2648,-288,19000,-174,202,-183,2024-01-18 09:47:47,0.0
2608,-364,19076,-170,201,-185,2024-01-18 09:47:47,0.0
2692,-336,19044,-177,178,-180,2024-01-18 09:47:47,0.0
2608,-352,19064,-153,158,-198,2024-01-18 09:47:48,0.0
2644,-268,18924,-151,213,-192,2024-01-18 09:47:48,0.0
2692,-264,18996,-162,199,-177,2024-01-18 09:47:48,0.0
2656,-364,19000,-173,182,-195,2024-01-18 09:47:48,0.0
2608,-248,18984,-186,207,-184,2024-01-18 09:47:48,0.0
2672,-384,18956,-167,204,-185,2024-01-18 09:47:48,0.0
2612,-240,18952,-172,205,-183,2024-01-18 09:47:48,0.0
2664,-336,19060,-161,200,-174,2024-01-18 09:47:48,0.0
2688,-224,18932,-165,189,-166,2024-01-18 09:47:48,0.0
2588,-260,19068,-156,209,-194,2024-01-18 09:47:48,0.0
2668,-220,19076,-167,165,-172,2024-01-18 09:47:48,0.0
2632,-300,19012,-156,196,-180,2024-01-18 09:47:48,0.0
2652,-316,19044,-134,199,-206,2024-01-18 09:47:48,0.0
2688,-324,18924,-181,207,-176,2024-01-18 09:47:48,0.0
2636,-268,19012,-180,192,-192,2024-01-18 09:47:48,0.0
2656,-332,18980,-153,175,-177,2024-01-18 09:47:48,0.0
2688,-332,19004,-143,199,-173,2024-01-18 09:47:48,0.0
2616,-380,18992,-154,192,-166,2024-01-18 09:47:48,0.0
2700,-280,18984,-174,196,-171,2024-01-18 09:47:48,0.0
2576,-300,18860,-144,202,-187,2024-01-18 09:47:48,0.0
2640,-300,18936,-145,184,-177,2024-01-18 09:47:48,0.0
2524,-340,19068,-158,182,-194,2024-01-18 09:47:48,0.0
2632,-256,18932,-146,189,-186,2024-01-18 09:47:48,0.0
2628,-312,19064,-172,207,-190,2024-01-18 09:47:48,0.0
2644,-352,18956,-165,211,-176,2024-01-18 09:47:48,0.0
2672,-300,18960,-155,183,-177,2024-01-18 09:47:48,0.0
2664,-284,18760,-175,179,-180,2024-01-18 09:47:48,0.0
2636,-264,19020,-177,182,-175,2024-01-18 09:47:48,0.0
2664,-240,19020,-164,201,-185,2024-01-18 09:47:48,0.0
2532,-212,18964,-180,213,-192,2024-01-18 09:47:48,0.0
2636,-288,19076,-163,196,-168,2024-01-18 09:47:48,0.0
2672,-260,18904,-149,200,-171,2024-01-18 09:47:48,0.0
2632,-392,18976,-172,200,-191,2024-01-18 09:47:48,0.0
2604,-328,19000,-138,195,-182,2024-01-18 09:47:48,0.0
2796,-344,19032,-169,162,-169,2024-01-18 09:47:48,0.0
2676,-324,19008,-182,202,-180,2024-01-18 09:47:48,0.0
2628,-236,18848,-154,181,-173,2024-01-18 09:47:48,0.0
2664,-296,18976,-186,190,-175,2024-01-18 09:47:48,0.0
2680,-244,18916,-161,187,-207,2024-01-18 09:47:48,0.0
2604,-340,19016,-132,191,-177,2024-01-18 09:47:48,0.0
2692,-368,18908,-183,195,-181,2024-01-18 09:47:48,0.0
2552,-280,19008,-158,219,-176,2024-01-18 09:47:48,0.0
2688,-336,18932,-170,202,-187,2024-01-18 09:47:48,0.0
2652,-268,19124,-150,184,-174,2024-01-18 09:47:48,0.0
2664,-208,18848,-179,152,-173,2024-01-18 09:47:48,0.0
2584,-280,19076,-163,191,-182,2024-01-18 09:47:48,0.0
2708,-264,19120,-166,212,-170,2024-01-18 09:47:48,0.0
2584,-340,18832,-172,189,-179,2024-01-18 09:47:48,0.0
2716,-352,18972,-166,191,-175,2024-01-18 09:47:48,0.0
2644,-296,19064,-144,186,-170,2024-01-18 09:47:48,0.0
2640,-252,18952,-149,188,-200,2024-01-18 09:47:48,0.0
2560,-240,18876,-153,172,-182,2024-01-18 09:47:48,0.0
2608,-244,19044,-171,168,-194,2024-01-18 09:47:48,0.0
2692,-360,19044,-164,201,-203,2024-01-18 09:47:48,0.0
2580,-244,18932,-158,192,-189,2024-01-18 09:47:48,0.0
2644,-236,18988,-165,196,-175,2024-01-18 09:47:48,0.0
2680,-296,19004,-187,213,-197,2024-01-18 09:47:48,0.0
2604,-276,18932,-161,184,-172,2024-01-18 09:47:48,0.0
2560,-312,18980,-167,194,-162,2024-01-18 09:47:48,0.0
2620,-288,19172,-161,169,-177,2024-01-18 09:47:49,0.0
2608,-268,18868,-179,200,-182,2024-01-18 09:47:49,0.0
2628,-308,18812,-156,190,-173,2024-01-18 09:47:49,0.0
2648,-256,19024,-151,176,-203,2024-01-18 09:47:49,0.0
2636,-336,19024,-156,172,-146,2024-01-18 09:47:49,0.0
2692,-296,19100,-168,191,-172,2024-01-18 09:47:49,0.0
2568,-348,19108,-147,203,-203,2024-01-18 09:47:49,0.0
2704,-280,19028,-160,195,-180,2024-01-18 09:47:49,0.0
2680,-268,18924,-183,204,-209,2024-01-18 09:47:49,0.0
2660,-352,19024,-171,208,-174,2024-01-18 09:47:49,0.0
2700,-320,19068,-156,171,-170,2024-01-18 09:47:49,0.0
2672,-292,19108,-170,197,-167,2024-01-18 09:47:49,0.0
2660,-328,19000,-178,200,-195,2024-01-18 09:47:49,0.0
2580,-276,18952,-166,191,-175,2024-01-18 09:47:49,0.0
2656,-396,19072,-151,191,-171,2024-01-18 09:47:49,0.0
2644,-256,18956,-170,171,-182,2024-01-18 09:47:49,0.0
2580,-420,19012,-181,177,-182,2024-01-18 09:47:49,0.0
2688,-344,18944,-181,191,-178,2024-01-18 09:47:49,0.0
2620,-304,19064,-174,189,-187,2024-01-18 09:47:49,0.0
2584,-312,18992,-177,191,-183,2024-01-18 09:47:49,0.0
2620,-380,19008,-176,201,-195,2024-01-18 09:47:49,0.0
2584,-244,19052,-168,172,-186,2024-01-18 09:47:49,0.0
2608,-304,18920,-151,176,-178,2024-01-18 09:47:49,0.0
2616,-216,19092,-155,190,-183,2024-01-18 09:47:49,0.0
2688,-276,19004,-167,184,-175,2024-01-18 09:47:49,0.0
2672,-352,18948,-171,194,-200,2024-01-18 09:47:49,0.0
2636,-324,19036,-146,190,-193,2024-01-18 09:47:49,0.0
2668,-164,18992,-151,194,-185,2024-01-18 09:47:49,0.0
2732,-400,19100,-157,206,-189,2024-01-18 09:47:49,0.0
2768,-232,19060,-153,195,-166,2024-01-18 09:47:49,
2688,-252,18952,-151,192,-199,2024-01-18 09:47:49,0.0
2644,-336,18944,-147,192,-149,2024-01-18 09:47:49,0.0
2648,-256,18856,-165,187,-188,2024-01-18 09:47:49,0.0
2616,-268,18956,-163,182,-192,2024-01-18 09:47:49,0.0
2668,-284,18872,-152,187,-179,2024-01-18 09:47:49,0.0
2784,-316,19056,-171,206,-193,2024-01-18 09:47:49,0.0
2540,-320,18884,-175,214,-176,2024-01-18 09:47:49,0.0
2688,-300,19032,-165,200,-167,2024-01-18 09:47:49,0.0
2576,-288,18984,-142,180,-172,2024-01-18 09:47:49,0.0
2540,-268,19064,-174,167,-191,2024-01-18 09:47:49,0.0
2568,-288,19096,-158,201,-200,2024-01-18 09:47:49,0.0
2612,-264,18980,-156,199,-197,2024-01-18 09:47:49,0.0
2708,-304,18936,-177,175,-188,2024-01-18 09:47:49,0.0
2668,-324,18988,-152,186,-200,2024-01-18 09:47:49,0.0
2656,-340,19048,-170,188,-192,2024-01-18 09:47:49,0.0
2652,-328,18956,-161,206,-187,2024-01-18 09:47:49,0.0
2620,-380,18888,-177,201,-189,2024-01-18 09:47:49,0.0
2748,-252,19144,-185,168,-174,2024-01-18 09:47:49,0.0
2672,-316,18996,-174,173,-177,2024-01-18 09:47:49,0.0
2724,-304,18868,-177,193,-189,2024-01-18 09:47:49,0.0
2664,-296,18892,-184,213,-194,2024-01-18 09:47:49,0.0
2672,-324,18828,-176,181,-197,2024-01-18 09:47:49,0.0
2688,-336,18908,-172,183,-202,2024-01-18 09:47:49,0.0
2716,-348,19068,-171,168,-183,2024-01-18 09:47:49,0.0
2700,-292,19128,-205,184,-183,2024-01-18 09:47:49,0.0
2676,-304,19012,-157,180,-169,2024-01-18 09:47:49,0.0
2652,-300,19148,-159,192,-182,2024-01-18 09:47:49,0.0
2772,-288,18892,-159,190,-179,2024-01-18 09:47:49,0.0
2612,-300,18876,-173,190,-180,2024-01-18 09:47:49,0.0
2580,-320,18856,-171,187,-201,2024-01-18 09:47:50,0.0
2700,-284,18924,-162,198,-187,2024-01-18 09:47:50,0.0
2720,-256,19116,-176,191,-156,2024-01-18 09:47:50,0.0
2712,-312,18992,-162,194,-180,2024-01-18 09:47:50,0.0
2664,-264,18828,-190,163,-183,2024-01-18 09:47:50,0.0
2636,-288,18888,-186,206,-173,2024-01-18 09:47:50,0.0
2596,-356,18888,-146,165,-188,2024-01-18 09:47:50,0.0
2680,-308,19020,-157,185,-204,2024-01-18 09:47:50,0.0
2580,-324,18976,-158,202,-176,2024-01-18 09:47:50,0.0
2708,-300,18992,-172,188,-204,2024-01-18 09:47:50,0.0
2692,-276,18944,-170,206,-179,2024-01-18 09:47:50,0.0
2644,-228,19024,-181,205,-179,2024-01-18 09:47:50,0.0
2756,-388,19008,-143,185,-180,2024-01-18 09:47:50,0.0
2636,-316,19120,-169,176,-208,2024-01-18 09:47:50,0.0
2744,-212,18908,-178,179,-193,2024-01-18 09:47:50,0.0
2576,-288,18892,-161,184,-186,2024-01-18 09:47:50,0.0
2596,-184,18928,-176,193,-168,2024-01-18 09:47:50,0.0
2664,-256,18864,-168,189,-183,2024-01-18 09:47:50,0.0
2620,-272,18964,-170,204,-204,2024-01-18 09:47:50,0.0
2640,-432,18904,-151,172,-195,2024-01-18 09:47:50,0.0
2648,-260,18912,-166,187,-178,2024-01-18 09:47:50,0.0
2628,-296,18964,-190,185,-189,2024-01-18 09:47:50,0.0
2684,-308,19080,-182,194,-195,2024-01-18 09:47:50,0.0
2596,-284,19060,-163,205,-190,2024-01-18 09:47:50,0.0
2584,-304,18936,-166,192,-181,2024-01-18 09:47:50,0.0
2628,-352,18916,-159,177,-192,2024-01-18 09:47:50,0.0
2696,-292,18880,-155,192,-209,2024-01-18 09:47:50,0.0
2668,-272,18836,-181,206,-180,2024-01-18 09:47:50,0.0
2632,-292,18920,-162,199,-178,2024-01-18 09:47:50,0.0
2704,-272,18984,-164,188,-182,2024-01-18 09:47:50,0.0
2580,-332,18980,-169,202,-210,2024-01-18 09:47:50,0.0
2596,-240,19020,-166,199,-173,2024-01-18 09:47:50,0.0
2760,-276,19072,-155,181,-170,2024-01-18 09:47:50,0.0
2736,-388,18916,-136,183,-194,2024-01-18 09:47:50,0.0
2552,-352,19036,-159,195,-162,2024-01-18 09:47:50,0.0
2748,-292,19032,-167,199,-170,2024-01-18 09:47:50,0.0
2576,-348,19060,-162,189,-187,2024-01-18 09:47:50,0.0
2652,-228,19028,-176,198,-182,2024-01-18 09:47:50,0.0
2680,-268,19092,-170,198,-191,2024-01-18 09:47:50,0.0
2664,-300,19004,-154,177,-192,2024-01-18 09:47:50,0.0
2660,-364,19040,-180,181,-184,2024-01-18 09:47:50,0.0
2684,-332,19060,-163,184,-173,2024-01-18 09:47:50,0.0
2680,-220,19000,-160,194,-193,2024-01-18 09:47:50,0.0
2524,-328,18980,-168,184,-194,2024-01-18 09:47:50,0.0
2612,-264,18872,-151,185,-165,2024-01-18 09:47:50,0.0
2608,-300,19068,-165,211,-186,2024-01-18 09:47:50,0.0
2708,-296,18952,-173,183,-178,2024-01-18 09:47:50,0.0
2620,-280,19044,-154,190,-176,2024-01-18 09:47:50,0.0
2712,-268,18932,-174,188,-182,2024-01-18 09:47:50,0.0
2700,-280,18860,-169,195,-197,2024-01-18 09:47:50,0.0
2588,-384,18992,-161,182,-184,2024-01-18 09:47:50,0.0
2588,-348,18960,-145,197,-185,2024-01-18 09:47:50,0.0
2652,-276,19080,-170,202,-161,2024-01-18 09:47:50,0.0
2672,-332,19136,-152,192,-184,2024-01-18 09:47:50,0.0
2692,-312,18888,-182,190,-189,2024-01-18 09:47:50,0.0
2648,-296,19012,-152,202,-183,2024-01-18 09:47:50,0.0
2532,-312,19124,-147,195,-178,2024-01-18 09:47:50,0.0
2600,-324,18992,-158,185,-180,2024-01-18 09:47:50,0.0
2624,-272,18984,-151,211,-175,2024-01-18 09:47:50,0.0
2632,-348,18932,-164,168,-187,2024-01-18 09:47:50,0.0
2640,-232,18876,-150,201,-179,2024-01-18 09:47:51,0.0
2644,-332,19000,-163,180,-192,2024-01-18 09:47:51,0.0
2696,-300,19008,-148,193,-190,2024-01-18 09:47:51,0.0
2676,-240,18844,-173,202,-186,2024-01-18 09:47:51,0.0
2628,-328,18808,-152,179,-178,2024-01-18 09:47:51,0.0
2664,-220,19072,-170,182,-170,2024-01-18 09:47:51,0.0
2740,-348,19084,-145,210,-173,2024-01-18 09:47:51,0.0
2724,-320,18936,-165,203,-193,2024-01-18 09:47:51,0.0
2588,-296,19048,-156,185,-172,2024-01-18 09:47:51,0.0
2584,-348,18864,-165,190,-183,2024-01-18 09:47:51,0.0
2604,-368,18980,-199,177,-185,2024-01-18 09:47:51,
2676,-288,19032,-169,196,-173,2024-01-18 09:47:51,0.0
2624,-312,18964,-192,194,-195,2024-01-18 09:47:51,0.0
2708,-348,18968,-167,178,-185,2024-01-18 09:47:51,0.0
2660,-288,19068,-170,180,-169,2024-01-18 09:47:51,0.0
2628,-256,18936,-164,190,-201,2024-01-18 09:47:51,0.0
2680,-232,19060,-167,198,-176,2024-01-18 09:47:51,0.0
2632,-296,18920,-180,204,-173,2024-01-18 09:47:51,0.0
2704,-308,18944,-160,198,-170,2024-01-18 09:47:51,0.0
2668,-176,18988,-153,184,-183,2024-01-18 09:47:51,0.0
2648,-316,18928,-137,181,-192,2024-01-18 09:47:51,0.0
2644,-228,18912,-159,193,-192,2024-01-18 09:47:51,0.0
2648,-280,19008,-154,174,-189,2024-01-18 09:47:51,0.0
2748,-296,19000,-165,198,-181,2024-01-18 09:47:51,0.0
2672,-244,18916,-157,172,-182,2024-01-18 09:47:51,0.0
2632,-280,19004,-160,171,-184,2024-01-18 09:47:51,0.0
2688,-196,18988,-161,197,-207,2024-01-18 09:47:51,0.0
2676,-240,19128,-162,200,-181,2024-01-18 09:47:51,0.0
2656,-332,19124,-199,187,-178,2024-01-18 09:47:51,0.0
2680,-256,19104,-158,200,-192,2024-01-18 09:47:51,0.0
2592,-316,18804,-133,210,-196,2024-01-18 09:47:51,0.0
2644,-276,18976,-172,160,-204,2024-01-18 09:47:51,0.0
2720,-256,18924,-187,188,-194,2024-01-18 09:47:51,0.0
2728,-344,19032,-167,179,-161,2024-01-18 09:47:51,0.0
2628,-304,18800,-175,197,-173,2024-01-18 09:47:51,0.0
2644,-256,19028,-163,211,-187,2024-01-18 09:47:51,0.0
2708,-332,18984,-168,162,-202,2024-01-18 09:47:51,0.0
2684,-188,18980,-169,193,-202,2024-01-18 09:47:51,0.0
2756,-268,18964,-176,196,-190,2024-01-18 09:47:51,0.0
2656,-256,18876,-163,210,-181,2024-01-18 09:47:51,0.0
2656,-340,18972,-137,183,-190,2024-01-18 09:47:51,0.0
2656,-332,19072,-186,193,-185,2024-01-18 09:47:51,0.0
2656,-300,18988,-185,199,-189,2024-01-18 09:47:51,0.0
2740,-276,18940,-190,198,-169,2024-01-18 09:47:51,0.0
2656,-296,18992,-166,206,-186,2024-01-18 09:47:51,0.0
2680,-312,19008,-162,196,-175,2024-01-18 09:47:51,0.0
2620,-192,19076,-178,203,-157,2024-01-18 09:47:51,0.0
2656,-356,18980,-170,178,-204,2024-01-18 09:47:51,0.0
2652,-284,18984,-162,201,-184,2024-01-18 09:47:51,0.0
2592,-352,19128,-168,172,-183,2024-01-18 09:47:51,0.0
2652,-224,18964,-160,168,-189,2024-01-18 09:47:51,0.0
2704,-236,18832,-192,150,-192,2024-01-18 09:47:51,0.0
2696,-232,18924,-178,195,-161,2024-01-18 09:47:51,0.0
2592,-372,18928,-156,210,-186,2024-01-18 09:47:51,0.0
2636,-240,19008,-166,184,-176,2024-01-18 09:47:51,0.0
2644,-300,19080,-180,205,-199,2024-01-18 09:47:51,0.0
2712,-336,18936,-179,199,-196,2024-01-18 09:47:51,0.0
2556,-276,19024,-189,204,-177,2024-01-18 09:47:51,0.0
2704,-272,18996,-172,185,-196,2024-01-18 09:47:52,0.0
2540,-256,18948,-170,182,-179,2024-01-18 09:47:52,0.0
2592,-288,19016,-165,179,-189,2024-01-18 09:47:52,0.0
2652,-316,18924,-159,207,-196,2024-01-18 09:47:52,0.0
2676,-240,19036,-140,190,-183,2024-01-18 09:47:52,0.0
2692,-340,19120,-202,183,-181,2024-01-18 09:47:52,0.0
2664,-228,18932,-173,182,-181,2024-01-18 09:47:52,0.0
2728,-292,18980,-155,194,-187,2024-01-18 09:47:52,0.0
2668,-256,19044,-164,179,-199,2024-01-18 09:47:52,0.0
2740,-388,19080,-162,198,-186,2024-01-18 09:47:52,0.0
2724,-264,18876,-163,211,-181,2024-01-18 09:47:52,0.0
2640,-300,19024,-168,183,-188,2024-01-18 09:47:52,0.0
2532,-432,18964,-179,199,-195,2024-01-18 09:47:52,0.0
2596,-344,18924,-187,184,-169,2024-01-18 09:47:52,0.0
2656,-296,19068,-179,187,-176,2024-01-18 09:47:52,0.0
2504,-336,18988,-152,228,-190,2024-01-18 09:47:52,0.0
2724,-188,19012,-173,209,-191,2024-01-18 09:47:52,0.0
2660,-232,19000,-172,209,-189,2024-01-18 09:47:52,0.0
2688,-256,19108,-173,209,-197,2024-01-18 09:47:52,0.0
2668,-312,19020,-163,186,-187,2024-01-18 09:47:52,0.0
2644,-380,19012,-138,185,-175,2024-01-18 09:47:52,0.0
2748,-244,18992,-163,194,-179,2024-01-18 09:47:52,0.0
2576,-376,19004,-169,194,-178,2024-01-18 09:47:52,0.0
2724,-268,19072,-177,192,-178,2024-01-18 09:47:52,0.0
2688,-284,18900,-149,192,-183,2024-01-18 09:47:52,0.0
2704,-344,19024,-175,173,-196,2024-01-18 09:47:52,0.0
2632,-260,18888,-188,191,-174,2024-01-18 09:47:52,0.0
2668,-296,19024,-179,184,-173,2024-01-18 09:47:52,0.0
2572,-276,18960,-170,192,-185,2024-01-18 09:47:52,0.0
2736,-352,18920,-168,191,-173,2024-01-18 09:47:52,0.0
2652,-344,18984,-163,193,-188,2024-01-18 09:47:52,0.0
2684,-232,18880,-176,199,-173,2024-01-18 09:47:52,0.0
2712,-292,18932,-168,190,-177,2024-01-18 09:47:52,0.0
2588,-284,18976,-178,200,-186,2024-01-18 09:47:52,0.0
2728,-296,18996,-171,189,-172,2024-01-18 09:47:52,0.0
2608,-376,18780,-167,188,-190,2024-01-18 09:47:52,0.0
2680,-212,18876,-149,193,-199,2024-01-18 09:47:52,0.0
2580,-276,19048,-166,184,-188,2024-01-18 09:47:52,0.0
2584,-296,19004,-168,189,-171,2024-01-18 09:47:52,0.0
2696,-256,18952,-160,182,-181,2024-01-18 09:47:52,0.0
2704,-340,18940,-165,179,-203,2024-01-18 09:47:52,0.0
2672,-296,18912,-159,198,-182,2024-01-18 09:47:52,0.0
2676,-320,19068,-183,191,-198,2024-01-18 09:47:52,0.0
2600,-316,19032,-168,174,-180,2024-01-18 09:47:52,0.0
2616,-288,18924,-152,193,-184,2024-01-18 09:47:52,0.0
2756,-264,18900,-178,217,-182,2024-01-18 09:47:52,0.0
1864,3140,32767,-376,-182,-216,2024-01-18 09:47:52,0.0
2824,-2268,12572,-302,-279,-188,2024-01-18 09:47:52,0.0
3272,-272,16672,223,486,-150,2024-01-18 09:47:52,0.0
2612,-632,19052,-489,157,-203,2024-01-18 09:47:52,0.0
3304,-48,21580,30,202,-182,2024-01-18 09:47:52,0.0
2252,-760,21284,-213,127,-209,2024-01-18 09:47:52,0.0
2760,424,14544,-239,220,-159,2024-01-18 09:47:52,
2688,-596,22944,-161,198,-195,2024-01-18 09:47:52,0.0
2812,-412,16560,-205,67,-182,2024-01-18 09:47:52,0.0
2796,112,20724,-218,278,-177,2024-01-18 09:47:52,0.0
2748,-688,19476,-178,136,-217,2024-01-18 09:47:52,0.0
2904,-428,17952,-180,195,-175,2024-01-18 09:47:52,0.0
2416,-52,19576,-224,202,-170,2024-01-18 09:47:52,0.0
2872,-300,18256,-178,176,-185,2024-01-18 09:47:53,0.0
2620,-684,19944,-177,174,-177,2024-01-18 09:47:53,0.0
2640,156,17732,-203,208,-183,2024-01-18 09:47:53,0.0
2676,-528,20388,-178,199,-208,2024-01-18 09:47:53,0.0
2752,-424,17784,-181,171,-187,2024-01-18 09:47:53,0.0
2660,-108,19512,-174,206,-185,2024-01-18 09:47:53,0.0
2732,-392,19000,-184,180,-198,2024-01-18 09:47:53,0.0
2636,-212,18988,-126,192,-163,2024-01-18 09:47:53,0.0
2636,-44,18684,-198,181,-181,2024-01-18 09:47:53,0.0
2792,-416,19192,-157,195,-196,2024-01-18 09:47:53,0.0
2572,-308,18840,-191,156,-178,2024-01-18 09:47:53,0.0
2704,-224,18668,-153,205,-173,2024-01-18 09:47:53,0.0
2704,-440,19480,-186,157,-180,2024-01-18 09:47:53,0.0
2528,-356,18544,-146,176,-184,2024-01-18 09:47:53,0.0
2640,-200,19420,-191,195,-196,2024-01-18 09:47:53,0.0
2676,-320,18736,-182,196,-172,2024-01-18 09:47:53,0.0
2656,-380,19224,-145,192,-162,2024-01-18 09:47:53,0.0
2668,-296,18844,-156,206,-185,2024-01-18 09:47:53,0.0
2676,-352,19356,-199,183,-177,2024-01-18 09:47:53,0.0
2588,-368,18772,-154,198,-189,2024-01-18 09:47:53,0.0
2680,-204,19076,-170,220,-182,2024-01-18 09:47:53,0.0
2688,-356,18868,-174,198,-180,2024-01-18 09:47:53,0.0
2656,-300,19200,-157,184,-187,2024-01-18 09:47:53,0.0
2716,-340,18936,-182,172,-180,2024-01-18 09:47:53,0.0
2704,-340,19128,-140,194,-168,2024-01-18 09:47:53,0.0
2680,-268,19012,-169,193,-178,2024-01-18 09:47:53,0.0
2636,-200,19028,-168,203,-183,2024-01-18 09:47:53,0.0
2680,-216,19008,-171,169,-198,2024-01-18 09:47:53,0.0
2620,-324,18944,-166,176,-164,2024-01-18 09:47:53,0.0
2632,-288,19056,-167,201,-175,2024-01-18 09:47:53,0.0
2776,-236,18852,-156,179,-191,2024-01-18 09:47:53,0.0
2708,-308,19172,-167,186,-183,2024-01-18 09:47:53,0.0
2748,-320,18992,-160,202,-180,2024-01-18 09:47:53,0.0
2768,-308,18476,-144,210,-182,2024-01-18 09:47:53,0.0
2640,-256,19240,-163,196,-176,2024-01-18 09:47:53,0.0
2688,-308,19400,-173,182,-195,2024-01-18 09:47:53,0.0
2664,-412,19168,-158,166,-178,2024-01-18 09:47:53,0.0
2596,-392,18900,-170,187,-193,2024-01-18 09:47:53,0.0
2624,-372,18912,-171,204,-159,2024-01-18 09:47:53,0.0
2692,-308,19128,-162,189,-180,2024-01-18 09:47:53,0.0
2644,-184,19040,-162,191,-176,2024-01-18 09:47:53,0.0
2648,-324,18816,-155,196,-166,2024-01-18 09:47:53,0.0
2608,-192,19156,-179,192,-168,2024-01-18 09:47:53,0.0
2620,-396,19152,-158,190,-192,2024-01-18 09:47:53,0.0
2720,-400,19180,-166,177,-165,2024-01-18 09:47:53,0.0
2672,-368,18940,-145,178,-176,2024-01-18 09:47:53,0.0
2568,-228,19008,-158,192,-179,2024-01-18 09:47:53,0.0
2736,-288,18916,-176,196,-184,2024-01-18 09:47:53,0.0
2696,-200,19108,-147,171,-183,2024-01-18 09:47:53,0.0
2584,-324,19056,-160,204,-159,2024-01-18 09:47:53,0.0
2632,-244,18864,-164,204,-175,2024-01-18 09:47:53,0.0
2652,-352,19052,-180,194,-183,2024-01-18 09:47:53,0.0
2664,-324,18916,-168,198,-186,2024-01-18 09:47:53,0.0
2624,-288,19000,-164,172,-174,2024-01-18 09:47:53,0.0
2672,-292,19008,-190,203,-176,2024-01-18 09:47:53,0.0
2688,-284,19180,-183,200,-179,2024-01-18 09:47:53,0.0
2632,-328,18964,-182,190,-201,2024-01-18 09:47:53,0.0
2628,-284,19040,-170,180,-184,2024-01-18 09:47:53,0.0
2684,-276,18860,-149,189,-169,2024-01-18 09:47:53,0.0
2740,-332,19052,-158,207,-184,2024-01-18 09:47:54,0.0
2556,-344,18920,-174,209,-182,2024-01-18 09:47:54,0.0
2676,-400,18948,-156,182,-186,2024-01-18 09:47:54,0.0
2612,-248,18964,-161,181,-193,2024-01-18 09:47:54,0.0
2648,-364,18912,-150,192,-192,2024-01-18 09:47:54,0.0
2640,-276,18968,-172,188,-170,2024-01-18 09:47:54,0.0
2704,-228,18908,-152,187,-187,2024-01-18 09:47:54,0.0
2624,-292,19000,-172,175,-188,2024-01-18 09:47:54,0.0
2752,-340,18960,-158,203,-182,2024-01-18 09:47:54,0.0
2568,-320,18988,-179,170,-183,2024-01-18 09:47:54,0.0
2676,-304,19016,-173,191,-187,2024-01-18 09:47:54,0.0
2688,-276,19012,-185,195,-203,2024-01-18 09:47:54,0.0
2720,-332,18904,-187,199,-210,2024-01-18 09:47:54,0.0
2628,-312,18944,-145,191,-184,2024-01-18 09:47:54,0.0
2784,-296,19028,-158,185,-176,2024-01-18 09:47:54,0.0
2612,-184,19040,-183,196,-196,2024-01-18 09:47:54,0.0
2608,-328,19064,-158,164,-197,2024-01-18 09:47:54,0.0
2632,-348,18868,-178,214,-191,2024-01-18 09:47:54,0.0
2696,-372,18964,-179,184,-181,2024-01-18 09:47:54,0.0
2680,-232,18912,-194,175,-176,2024-01-18 09:47:54,0.0
2688,-272,18936,-140,193,-184,2024-01-18 09:47:54,0.0
2620,-220,18936,-163,188,-193,2024-01-18 09:47:54,0.0
2604,-312,18988,-158,197,-175,2024-01-18 09:47:54,0.0
2640,-264,18924,-164,194,-187,2024-01-18 09:47:54,0.0
2628,-344,19024,-159,178,-185,2024-01-18 09:47:54,0.0
2716,-284,18868,-138,190,-179,2024-01-18 09:47:54,0.0
2664,-276,18880,-172,203,-190,2024-01-18 09:47:54,0.0
2668,-252,18900,-175,201,-193,2024-01-18 09:47:54,0.0
2608,-300,18912,-173,188,-177,2024-01-18 09:47:54,0.0
2596,-304,18960,-169,171,-197,2024-01-18 09:47:54,0.0
2648,-268,18892,-172,212,-205,2024-01-18 09:47:54,0.0
2636,-348,18944,-158,170,-212,2024-01-18 09:47:54,0.0
2668,-308,18920,-151,200,-174,2024-01-18 09:47:54,0.0
2700,-300,18844,-176,176,-188,2024-01-18 09:47:54,0.0
2624,-308,19064,-181,187,-189,2024-01-18 09:47:54,
2732,-288,18932,-156,194,-200,2024-01-18 09:47:54,0.0
2696,-228,19000,-169,180,-187,2024-01-18 09:47:54,0.0
2616,-224,19004,-171,195,-180,2024-01-18 09:47:54,0.0
2632,-352,19004,-167,173,-178,2024-01-18 09:47:54,0.0
2736,-312,19088,-162,165,-180,2024-01-18 09:47:54,0.0
2772,-220,19104,-161,190,-179,2024-01-18 09:47:54,0.0
2748,-356,18920,-180,171,-163,2024-01-18 09:47:54,0.0
2640,-388,18976,-163,201,-183,2024-01-18 09:47:54,0.0
2644,-268,18892,-155,199,-177,2024-01-18 09:47:54,0.0
2628,-228,19028,-181,187,-196,2024-01-18 09:47:54,0.0
2628,-228,18992,-178,188,-180,2024-01-18 09:47:54,0.0
2620,-232,18836,-164,188,-179,2024-01-18 09:47:54,0.0
2620,-304,19008,-179,170,-193,2024-01-18 09:47:54,0.0
2604,-312,18896,-178,186,-207,2024-01-18 09:47:54,0.0
2680,-276,19056,-164,180,-174,2024-01-18 09:47:54,0.0
2604,-304,18972,-165,200,-177,2024-01-18 09:47:54,0.0
2748,-352,18984,-164,166,-163,2024-01-18 09:47:54,0.0
2644,-308,19220,-172,185,-162,2024-01-18 09:47:54,0.0
2704,-376,19020,-170,210,-183,2024-01-18 09:47:54,0.0
2572,-368,19092,-158,176,-170,2024-01-18 09:47:54,0.0
2600,-332,19016,-176,193,-181,2024-01-18 09:47:54,0.0
2640,-304,18976,-155,180,-199,2024-01-18 09:47:54,0.0
2716,-276,18996,-147,192,-181,2024-01-18 09:47:54,0.0
2620,-312,19000,-151,185,-166,2024-01-18 09:47:55,0.0
2632,-212,19036,-150,199,-174,2024-01-18 09:47:55,0.0
2672,-236,19116,-169,195,-181,2024-01-18 09:47:55,0.0
2740,-300,18880,-159,201,-180,2024-01-18 09:47:55,0.0
2628,-264,18892,-175,172,-193,2024-01-18 09:47:55,0.0
2612,-240,19068,-165,192,-193,2024-01-18 09:47:55,0.0
2724,-332,19012,-171,196,-184,2024-01-18 09:47:55,0.0
2540,-276,18984,-182,183,-194,2024-01-18 09:47:55,0.0
2680,-304,19008,-162,207,-196,2024-01-18 09:47:55,0.0
2592,-216,18856,-166,176,-191,2024-01-18 09:47:55,0.0
2608,-284,19032,-152,196,-184,2024-01-18 09:47:55,0.0
2652,-300,18968,-176,207,-176,2024-01-18 09:47:55,0.0
2672,-320,19020,-188,180,-187,2024-01-18 09:47:55,0.0
2604,-316,18944,-165,187,-177,2024-01-18 09:47:55,0.0
2632,-320,18992,-186,199,-196,2024-01-18 09:47:55,0.0
2756,-336,18996,-177,171,-188,2024-01-18 09:47:55,0.0
2640,-376,19116,-176,197,-168,2024-01-18 09:47:55,0.0
2648,-424,19016,-175,178,-163,2024-01-18 09:47:55,0.0
2608,-320,18988,-168,201,-195,2024-01-18 09:47:55,0.0
2640,-284,18960,-157,201,-175,2024-01-18 09:47:55,0.0
2652,-316,18956,-165,177,-186,2024-01-18 09:47:55,0.0
2680,-320,19064,-183,184,-196,2024-01-18 09:47:55,0.0
2676,-300,18948,-153,192,-163,2024-01-18 09:47:55,0.0
2636,-352,18944,-158,183,-173,2024-01-18 09:47:55,0.0
2792,-228,19080,-151,204,-194,2024-01-18 09:47:55,0.0
2696,-268,19016,-161,183,-186,2024-01-18 09:47:55,0.0
2568,-320,18952,-162,207,-203,2024-01-18 09:47:55,0.0
2584,-264,18892,-149,186,-178,2024-01-18 09:47:55,0.0
2668,-292,19036,-165,186,-185,2024-01-18 09:47:55,0.0
2656,-240,18964,-180,185,-184,2024-01-18 09:47:55,0.0
2568,-308,19016,-169,189,-181,2024-01-18 09:47:55,0.0
2724,-352,19000,-177,179,-202,2024-01-18 09:47:55,0.0
2652,-344,18936,-179,186,-186,2024-01-18 09:47:55,0.0
2672,-316,18792,-175,182,-181,2024-01-18 09:47:55,0.0
2724,-228,18916,-159,203,-204,2024-01-18 09:47:55,0.0
2652,-408,18984,-188,195,-183,2024-01-18 09:47:55,0.0
2628,-308,19016,-158,176,-179,2024-01-18 09:47:55,0.0
2636,-236,18832,-180,214,-190,2024-01-18 09:47:55,0.0
2648,-332,18976,-163,198,-192,2024-01-18 09:47:55,0.0
2564,-220,19028,-188,200,-187,2024-01-18 09:47:55,0.0
2636,-364,18944,-185,177,-188,2024-01-18 09:47:55,0.0
2648,-208,19024,-142,170,-180,2024-01-18 09:47:55,0.0
2760,-260,19024,-160,191,-195,2024-01-18 09:47:55,0.0
2688,-280,19032,-172,186,-172,2024-01-18 09:47:55,0.0
2676,-324,19016,-159,192,-196,2024-01-18 09:47:55,0.0
2644,-308,19020,-152,202,-193,2024-01-18 09:47:55,0.0
2580,-232,18936,-161,176,-175,2024-01-18 09:47:55,0.0
2696,-348,19016,-165,186,-176,2024-01-18 09:47:55,0.0
2664,-288,18976,-153,206,-172,2024-01-18 09:47:55,0.0
2572,-352,18992,-149,169,-177,2024-01-18 09:47:55,0.0
2668,-308,19056,-185,211,-187,2024-01-18 09:47:55,0.0
2620,-444,19040,-158,186,-208,2024-01-18 09:47:55,0.0
2504,-348,18996,-168,209,-172,2024-01-18 09:47:55,0.0
2648,-284,18876,-123,205,-193,2024-01-18 09:47:55,0.0
2652,-344,19072,-172,190,-177,2024-01-18 09:47:55,0.0
2696,-280,18888,-163,182,-200,2024-01-18 09:47:55,0.0
2652,-304,19052,-173,183,-176,2024-01-18 09:47:55,0.0
2600,-276,18956,-158,209,-178,2024-01-18 09:47:55,0.0
2584,-348,18840,-155,189,-197,2024-01-18 09:47:55,0.0
2564,-328,18964,-169,179,-172,2024-01-18 09:47:56,0.0
2648,-244,18940,-168,193,-180,2024-01-18 09:47:56,0.0
2672,-336,19100,-166,196,-183,2024-01-18 09:47:56,0.0
2704,-208,18964,-177,199,-185,2024-01-18 09:47:56,0.0
2744,-320,19076,-142,200,-154,2024-01-18 09:47:56,0.0
2560,-296,19012,-156,198,-183,2024-01-18 09:47:56,0.0
2732,-364,19036,-162,170,-177,2024-01-18 09:47:56,0.0
2720,-204,19004,-169,189,-196,2024-01-18 09:47:56,0.0
2660,-300,19116,-178,200,-193,2024-01-18 09:47:56,0.0
2732,-332,19076,-178,180,-172,2024-01-18 09:47:56,0.0
2696,-296,19128,-146,191,-182,2024-01-18 09:47:56,0.0
2552,-316,18988,-173,190,-167,2024-01-18 09:47:56,0.0
2696,-284,19016,-165,182,-170,2024-01-18 09:47:56,0.0
2628,-284,19016,-178,200,-177,2024-01-18 09:47:56,0.0
2680,-280,18960,-158,181,-200,2024-01-18 09:47:56,0.0
2692,-256,19072,-169,208,-176,2024-01-18 09:47:56,0.0
2700,-200,18972,-148,184,-200,2024-01-18 09:47:56,0.0
2680,-328,18932,-174,209,-180,2024-01-18 09:47:56,
2600,-252,19152,-174,179,-163,2024-01-18 09:47:56,0.0
2604,-292,18940,-163,211,-180,2024-01-18 09:47:56,0.0
2620,-392,19164,-181,199,-189,2024-01-18 09:47:56,0.0
2676,-344,19036,-154,190,-185,2024-01-18 09:47:56,0.0
2628,-416,19104,-180,189,-185,2024-01-18 09:47:56,0.0
2624,-312,18960,-154,189,-178,2024-01-18 09:47:56,0.0
2616,-316,19068,-172,195,-183,2024-01-18 09:47:56,0.0
2696,-364,19024,-157,184,-160,2024-01-18 09:47:56,0.0
2644,-368,19112,-146,204,-178,2024-01-18 09:47:56,0.0
2704,-340,19052,-147,209,-184,2024-01-18 09:47:56,0.0
2704,-192,18940,-189,192,-199,2024-01-18 09:47:56,0.0
2752,-240,18968,-185,187,-183,2024-01-18 09:47:56,0.0
2656,-224,18752,-161,193,-172,2024-01-18 09:47:56,0.0
2648,-208,19000,-160,189,-200,2024-01-18 09:47:56,0.0
2644,-216,18992,-158,195,-190,2024-01-18 09:47:56,0.0
2644,-248,19020,-160,181,-190,2024-01-18 09:47:56,0.0
2644,-332,18796,-152,171,-185,2024-01-18 09:47:56,0.0
2756,-244,19032,-139,207,-197,2024-01-18 09:47:56,0.0
2640,-252,19064,-161,191,-174,2024-01-18 09:47:56,0.0
2672,-236,18944,-178,197,-177,2024-01-18 09:47:56,0.0
2664,-360,19000,-170,194,-177,2024-01-18 09:47:56,0.0
2628,-272,19092,-158,190,-188,2024-01-18 09:47:56,0.0
2632,-164,19052,-154,196,-183,2024-01-18 09:47:56,0.0
2568,-308,18956,-155,178,-190,2024-01-18 09:47:56,0.0
2664,-252,19044,-183,182,-204,2024-01-18 09:47:56,0.0
2680,-220,19056,-182,195,-194,2024-01-18 09:47:56,0.0
2548,-416,19104,-178,181,-189,2024-01-18 09:47:56,0.0
2668,-292,18868,-170,173,-210,2024-01-18 09:47:56,0.0
2652,-232,18944,-130,201,-191,2024-01-18 09:47:56,0.0
2700,-320,18936,-160,198,-197,2024-01-18 09:47:56,0.0
2576,-396,18856,-184,203,-190,2024-01-18 09:47:56,0.0
2604,-224,18920,-154,192,-167,2024-01-18 09:47:56,0.0
2580,-388,19060,-161,179,-170,2024-01-18 09:47:56,0.0
2656,-220,19044,-174,195,-191,2024-01-18 09:47:56,0.0
2648,-320,18880,-165,180,-188,2024-01-18 09:47:56,0.0
2628,-416,19052,-164,198,-193,2024-01-18 09:47:56,0.0
2652,-384,18832,-153,184,-180,2024-01-18 09:47:56,0.0
2580,-248,19136,-171,199,-175,2024-01-18 09:47:56,0.0
2688,-296,19000,-151,181,-187,2024-01-18 09:47:56,0.0
2636,-256,18920,-172,182,-178,2024-01-18 09:47:56,0.0
2712,-340,18956,-153,204,-182,2024-01-18 09:47:56,0.0
2612,-264,18944,-163,205,-186,2024-01-18 09:47:57,0.0
2628,-160,19072,-174,214,-177,2024-01-18 09:47:57,0.0
2680,-340,18984,-169,215,-165,2024-01-18 09:47:57,0.0
2540,-328,18964,-153,183,-185,2024-01-18 09:47:57,0.0
2704,-320,18892,-166,187,-180,2024-01-18 09:47:57,0.0
2656,-304,19020,-160,189,-188,2024-01-18 09:47:57,0.0
2744,-260,18904,-166,206,-211,2024-01-18 09:47:57,0.0
2692,-344,18920,-184,177,-182,2024-01-18 09:47:57,0.0
2660,-204,18916,-161,179,-172,2024-01-18 09:47:57,0.0
2632,-260,18936,-154,200,-176,2024-01-18 09:47:57,0.0
2784,-348,19088,-163,193,-215,2024-01-18 09:47:57,0.0
2716,-256,18984,-187,198,-163,2024-01-18 09:47:57,0.0
2728,-260,19080,-153,197,-205,2024-01-18 09:47:57,0.0
2652,-292,18868,-148,209,-182,2024-01-18 09:47:57,0.0
2652,-268,19100,-152,180,-178,2024-01-18 09:47:57,0.0
2708,-324,19068,-165,178,-176,2024-01-18 09:47:57,0.0
2648,-348,18864,-152,192,-182,2024-01-18 09:47:57,0.0
2612,-332,18944,-183,202,-171,2024-01-18 09:47:57,0.0
2652,-300,19140,-159,199,-198,2024-01-18 09:47:57,0.0
2608,-316,18848,-166,198,-192,2024-01-18 09:47:57,0.0
2688,-228,18932,-165,190,-191,2024-01-18 09:47:57,0.0
2760,-256,19044,-133,206,-189,2024-01-18 09:47:57,0.0
2700,-292,18996,-176,197,-169,2024-01-18 09:47:57,0.0
2720,-296,18968,-163,197,-187,2024-01-18 09:47:57,0.0
2640,-188,19000,-142,189,-185,2024-01-18 09:47:57,0.0
2616,-280,19032,-175,175,-201,2024-01-18 09:47:57,0.0
2652,-196,18924,-169,207,-191,2024-01-18 09:47:57,0.0
2616,-240,18824,-154,199,-164,2024-01-18 09:47:57,0.0
2704,-356,19272,-164,198,-188,2024-01-18 09:47:57,0.0
2688,-356,18932,-160,180,-186,2024-01-18 09:47:57,0.0
2596,-300,18920,-142,173,-190,2024-01-18 09:47:57,0.0
2640,-244,18884,-167,186,-188,2024-01-18 09:47:57,0.0
2660,-276,18864,-159,205,-185,2024-01-18 09:47:57,0.0
2720,-176,19112,-173,194,-183,2024-01-18 09:47:57,0.0
2512,-256,19032,-169,197,-199,2024-01-18 09:47:57,0.0
2720,-276,18852,-155,183,-173,2024-01-18 09:47:57,0.0
2604,-240,18860,-186,199,-169,2024-01-18 09:47:57,0.0
2752,-348,18872,-150,186,-176,2024-01-18 09:47:57,0.0
2600,-240,18984,-174,188,-174,2024-01-18 09:47:57,0.0
2620,-368,18976,-153,199,-191,2024-01-18 09:47:57,0.0
2652,-260,19004,-168,199,-195,2024-01-18 09:47:57,0.0
2708,-340,19020,-180,182,-180,2024-01-18 09:47:57,0.0
2700,-172,19076,-165,164,-183,2024-01-18 09:47:57,0.0
2740,-240,19056,-172,193,-178,2024-01-18 09:47:57,0.0
2648,-296,18908,-166,191,-174,2024-01-18 09:47:57,0.0
2624,-212,18976,-157,191,-184,2024-01-18 09:47:57,0.0
2680,-264,18920,-143,186,-198,2024-01-18 09:47:57,0.0
2708,-312,19056,-163,188,-185,2024-01-18 09:47:57,0.0
2624,-264,18980,-207,185,-189,2024-01-18 09:47:57,0.0
2648,-340,18964,-147,175,-183,2024-01-18 09:47:57,0.0
2704,-276,19052,-173,185,-182,2024-01-18 09:47:57,0.0
2708,-224,18876,-193,200,-195,2024-01-18 09:47:57,0.0
2564,-208,18936,-186,186,-196,2024-01-18 09:47:57,0.0
2624,-220,18952,-163,188,-175,2024-01-18 09:47:57,0.0
2696,-348,19040,-162,192,-190,2024-01-18 09:47:57,0.0
2648,-328,18996,-152,193,-175,2024-01-18 09:47:57,0.0
2624,-272,18928,-173,178,-198,2024-01-18 09:47:57,0.0
2580,-312,19004,-193,208,-176,2024-01-18 09:47:57,0.0
2636,-268,19072,-150,194,-180,2024-01-18 09:47:57,
2720,-328,19064,-158,176,-179,2024-01-18 09:47:57,0.0
2660,-340,19012,-160,178,-164,2024-01-18 09:47:58,0.0
2700,-184,18880,-166,203,-172,2024-01-18 09:47:58,0.0
2652,-220,18932,-145,192,-178,2024-01-18 09:47:58,0.0
2712,-152,18900,-180,188,-189,2024-01-18 09:47:58,0.0
2692,-288,19056,-136,175,-198,2024-01-18 09:47:58,0.0
2724,-292,18932,-150,179,-193,2024-01-18 09:47:58,0.0
2636,-316,19060,-155,195,-185,2024-01-18 09:47:58,0.0
2664,-304,19116,-162,201,-181,2024-01-18 09:47:58,0.0
2660,-360,19056,-162,187,-166,2024-01-18 09:47:58,0.0
2700,-412,19044,-165,160,-187,2024-01-18 09:47:58,0.0
2632,-272,18920,-168,186,-169,2024-01-18 09:47:58,0.0
2588,-296,18956,-169,211,-183,2024-01-18 09:47:58,0.0
2680,-256,18992,-163,185,-178,2024-01-18 09:47:58,0.0
2584,-300,18988,-159,186,-187,2024-01-18 09:47:58,0.0
2716,-348,18944,-160,191,-171,2024-01-18 09:47:58,0.0
2684,-352,19060,-169,184,-204,2024-01-18 09:47:58,0.0
2612,-252,18940,-192,204,-172,2024-01-18 09:47:58,0.0
2712,-240,19044,-158,183,-163,2024-01-18 09:47:58,0.0
2640,-272,18912,-167,208,-168,2024-01-18 09:47:58,0.0
2648,-268,18976,-188,167,-166,2024-01-18 09:47:58,0.0
2720,-244,19016,-159,196,-171,2024-01-18 09:47:58,0.0
2692,-288,19000,-169,186,-183,2024-01-18 09:47:58,0.0
2624,-304,18804,-160,204,-203,2024-01-18 09:47:58,0.0
2632,-204,19048,-174,190,-183,2024-01-18 09:47:58,0.0
2692,-276,18932,-143,205,-188,2024-01-18 09:47:58,0.0
2756,-296,19008,-155,188,-181,2024-01-18 09:47:58,0.0
2564,-348,18944,-156,196,-168,2024-01-18 09:47:58,0.0
2700,-352,18840,-164,188,-181,2024-01-18 09:47:58,0.0
2628,-256,18984,-183,194,-206,2024-01-18 09:47:58,0.0
2660,-228,18940,-178,191,-182,2024-01-18 09:47:58,0.0
2676,-328,18956,-200,206,-186,2024-01-18 09:47:58,0.0
2720,-256,19192,-179,190,-194,2024-01-18 09:47:58,0.0
2676,-332,19020,-159,185,-160,2024-01-18 09:47:58,0.0
2680,-320,19000,-174,181,-199,2024-01-18 09:47:58,0.0
2708,-284,18988,-155,199,-181,2024-01-18 09:47:58,0.0
2616,-272,19020,-169,191,-171,2024-01-18 09:47:58,0.0
2584,-240,18844,-152,187,-175,2024-01-18 09:47:58,0.0
2624,-248,19016,-174,192,-178,2024-01-18 09:47:58,0.0
2588,-288,19192,-189,189,-193,2024-01-18 09:47:58,0.0
2740,-364,19100,-172,219,-216,2024-01-18 09:47:58,0.0
2604,-288,18944,-164,191,-171,2024-01-18 09:47:58,0.0
2732,-356,18984,-160,189,-185,2024-01-18 09:47:58,0.0
-1464,11756,19000,-142,309,398,2024-01-18 09:47:58,0.0
3604,3688,19152,-265,-1,273,2024-01-18 09:47:58,0.0
4856,-1328,18880,-197,41,-4689,2024-01-18 09:47:58,0.0
3464,-2024,18736,-198,-191,-8629,2024-01-18 09:47:58,0.0
604,-4264,19348,-88,50,-6744,2024-01-18 09:47:58,0.0
2152,-3640,18840,-151,340,-5566,2024-01-18 09:47:58,0.0
2196,-1360,18872,-143,148,-3977,2024-01-18 09:47:58,0.0
2636,140,18988,-165,212,-1892,2024-01-18 09:47:58,0.0
2784,-372,18852,-153,122,-277,2024-01-18 09:47:58,0.0
2628,-236,18932,-178,132,-171,2024-01-18 09:47:58,0.0
2908,-176,18904,-143,397,-98,2024-01-18 09:47:58,0.0
4924,2732,18712,-161,506,4341,2024-01-18 09:47:58,0.0
2252,-44,19292,-243,303,10878,2024-01-18 09:47:58,0.0
1468,-2432,18688,-232,311,11531,2024-01-18 09:47:58,0.0
11284,-2572,19012,-129,18,-4668,2024-01-18 09:47:58,0.0
-2108,-88,19036,-124,249,-7640,2024-01-18 09:47:58,0.0
1664,-568,19020,-171,127,-2056,2024-01-18 09:47:58,0.0
4260,-752,18904,-141,215,-4855,2024-01-18 09:47:58,0.0
5544,-2004,19080,-158,53,-6522,2024-01-18 09:47:59,0.0
9480,-4152,19152,-127,29,-11269,2024-01-18 09:47:59,0.0
9644,-3084,19276,-122,-220,-18911,2024-01-18 09:47:59,0.0
7172,-1764,18416,115,856,-23440,2024-01-18 09:47:59,0.0
5904,-3616,19356,97,653,-26893,2024-01-18 09:47:59,0.0
5256,-4872,18048,284,2363,-30691,2024-01-18 09:47:59,0.0
3324,-6744,18580,1002,4148,-31347,2024-01-18 09:47:59,0.0
-200,-4948,18364,548,-134,-28740,2024-01-18 09:47:59,0.0
-1752,-3700,19816,87,-1795,-25247,2024-01-18 09:47:59,0.0
-1812,-2292,19620,124,-2409,-22978,2024-01-18 09:47:59,0.0
-2020,136,19772,396,762,-21000,2024-01-18 09:47:59,0.0
-3932,1328,18732,-22,259,-18232,2024-01-18 09:47:59,0.0
-19656,3512,20840,-124,-867,-9712,2024-01-18 09:47:59,0.0
-8280,4292,19268,-310,-298,87,2024-01-18 09:47:59,0.0
-2748,48,18876,-297,66,5825,2024-01-18 09:47:59,0.0
556,636,17896,-407,474,12988,2024-01-18 09:47:59,0.0
948,324,18292,-315,-34,15627,2024-01-18 09:47:59,0.0
3460,-504,19240,-311,199,15935,2024-01-18 09:47:59,0.0
4156,-16,19216,-262,294,14885,2024-01-18 09:47:59,0.0
5480,588,19228,-324,164,12530,2024-01-18 09:47:59,0.0
6304,668,18920,-290,289,9599,2024-01-18 09:47:59,0.0
6032,984,19156,-231,209,8286,2024-01-18 09:47:59,0.0
5816,824,18820,-229,185,7167,2024-01-18 09:47:59,0.0
4924,-44,19012,-228,212,5697,2024-01-18 09:47:59,0.0
4372,-352,18984,-220,191,3901,2024-01-18 09:47:59,0.0
4300,-256,18940,-175,189,2138,2024-01-18 09:47:59,0.0
3592,-276,18968,-194,192,763,2024-01-18 09:47:59,0.0
3696,-184,18968,-193,185,-212,2024-01-18 09:47:59,0.0
2604,-248,18960,-147,197,-196,2024-01-18 09:47:59,0.0
2824,-332,19640,429,456,-302,2024-01-18 09:47:59,0.0
2916,-320,19164,-188,174,-499,2024-01-18 09:47:59,0.0
2820,-448,18688,70,482,-981,2024-01-18 09:47:59,0.0
508,372,19428,-184,272,205,2024-01-18 09:47:59,0.0
-2100,-212,17320,-937,2068,5752,2024-01-18 09:47:59,0.0
7924,3120,18452,-2264,3587,8002,2024-01-18 09:47:59,0.0
4300,584,20376,-2094,9359,5931,2024-01-18 09:47:59,0.0
2692,-1036,17164,-4381,-418,3592,2024-01-18 09:47:59,0.0
3124,-3308,17484,-2175,-7681,482,2024-01-18 09:47:59,0.0
3040,-3488,20896,2423,3569,1559,2024-01-18 09:47:59,
3692,1712,20896,3451,16829,3007,2024-01-18 09:47:59,0.0
3356,1964,17828,-685,7598,2945,2024-01-18 09:47:59,0.0
4696,-780,21156,-2643,-10658,2467,2024-01-18 09:47:59,0.0
9180,1304,22432,-997,-6390,2502,2024-01-18 09:47:59,0.0
11012,744,23568,2095,-2484,116,2024-01-18 09:47:59,0.0
11192,1264,22192,3616,-2358,-3649,2024-01-18 09:47:59,0.0
7336,1220,21584,3155,-61,-6686,2024-01-18 09:47:59,0.0
948,604,23224,4002,-3005,-8179,2024-01-18 09:47:59,0.0
-2700,-40,22788,6137,-2774,-5783,2024-01-18 09:47:59,0.0
-1412,4,22244,8040,-3319,-1215,2024-01-18 09:47:59,0.0
4916,356,20632,8616,-3937,-487,2024-01-18 09:47:59,0.0
8132,-384,20532,9344,-5704,-3424,2024-01-18 09:47:59,0.0
6912,-704,18284,10577,-6663,-6051,2024-01-18 09:47:59,0.0
2488,-252,15744,9785,-3915,-7678,2024-01-18 09:47:59,0.0
-1808,324,13852,8179,-3394,-7028,2024-01-18 09:47:59,0.0
-4696,356,14144,5641,-4892,-4983,2024-01-18 09:47:59,0.0
-4276,-192,15520,3478,-7253,-2051,2024-01-18 09:47:59,0.0
-1492,-1484,17804,3300,-6104,-649,2024-01-18 09:47:59,0.0
-1360,-796,17572,2727,-3179,-794,2024-01-18 09:47:59,0.0
-3500,-840,18164,1701,-2336,-221,2024-01-18 09:47:59,0.0
-4316,-340,18424,450,-1801,1668,2024-01-18 09:48:00,0.0
-3500,-176,19392,-1132,-1510,2760,2024-01-18 09:48:00,0.0
-3348,-496,21604,-1010,-224,3591,2024-01-18 09:48:00,0.0
-3516,276,20356,974,5463,5430,2024-01-18 09:48:00,0.0
-3024,1172,19300,1174,7548,7693,2024-01-18 09:48:00,0.0
272,884,18860,1374,7815,9252,2024-01-18 09:48:00,0.0
1084,844,17476,634,8756,9283,2024-01-18 09:48:00,0.0
-1504,1268,17204,-622,6675,10073,2024-01-18 09:48:00,0.0
-2028,660,17212,-1218,6926,12211,2024-01-18 09:48:00,0.0
396,-52,18480,-149,8067,14803,2024-01-18 09:48:00,0.0
5488,792,18032,840,12049,15262,2024-01-18 09:48:00,0.0
7876,648,18228,335,10586,13139,2024-01-18 09:48:00,0.0
6672,1572,18228,-504,4945,10298,2024-01-18 09:48:00,0.0
5412,2560,17992,-583,4112,9524,2024-01-18 09:48:00,0.0
3044,3120,16004,-1465,3350,9659,2024-01-18 09:48:00,0.0
6632,3396,17228,-2526,3138,8665,2024-01-18 09:48:00,0.0
4264,4172,17796,-3586,3181,7637,2024-01-18 09:48:00,0.0
3980,4560,18412,-3919,3147,8505,2024-01-18 09:48:00,0.0
5812,4720,19788,-3760,1521,9086,2024-01-18 09:48:00,0.0
9340,5056,20216,-2409,3121,8935,2024-01-18 09:48:00,0.0
11480,4968,20144,-1924,2674,7431,2024-01-18 09:48:00,0.0
12108,5060,19660,-2356,2036,4751,2024-01-18 09:48:00,0.0
8560,4532,21052,-1976,-238,3437,2024-01-18 09:48:00,0.0
9540,4612,21456,-56,1751,4136,2024-01-18 09:48:00,0.0
11912,3956,21300,1186,860,3324,2024-01-18 09:48:00,0.0
14208,3588,20616,1981,-474,1322,2024-01-18 09:48:00,0.0
14472,3308,20104,2733,-1838,-1298,2024-01-18 09:48:00,0.0
13532,2880,19520,3166,-2964,-3659,2024-01-18 09:48:00,0.0
12448,2224,18904,4055,-4016,-5151,2024-01-18 09:48:00,0.0
12648,2588,16644,4084,-3779,-6657,2024-01-18 09:48:00,0.0
12544,1732,15024,1761,-5321,-9254,2024-01-18 09:48:00,0.0
8888,1644,15460,-308,-5991,-11587,2024-01-18 09:48:00,0.0
6388,1376,16628,-1241,-4618,-11792,2024-01-18 09:48:00,0.0
6320,828,17452,-1404,-4511,-12138,2024-01-18 09:48:00,0.0
5432,420,17568,-1802,-5902,-13417,2024-01-18 09:48:00,0.0
2756,180,17804,-3210,-7252,-14920,2024-01-18 09:48:00,0.0
-872,-596,19044,-3536,-8167,-14601,2024-01-18 09:48:00,0.0
-1836,-1308,20336,-2835,-8006,-12634,2024-01-18 09:48:00,0.0
2656,-1740,18768,-1021,-5314,-11490,2024-01-18 09:48:00,0.0
3420,-484,17016,-4170,-9383,-13811,2024-01-18 09:48:00,0.0
1088,-1144,18620,-7995,-12070,-16566,2024-01-18 09:48:00,0.0
-3736,-1216,22976,-8665,-8349,-16969,2024-01-18 09:48:00,0.0
-7992,-1176,25688,-6812,-5399,-15176,2024-01-18 09:48:00,0.0
-8564,-1696,27016,-3799,-181,-11835,2024-01-18 09:48:00,0.0
-8436,-1864,26944,-473,4155,-8758,2024-01-18 09:48:00,0.0
-9592,-1976,27096,2629,3996,-5796,2024-01-18 09:48:00,0.0
-8304,-1036,24664,6195,8491,-1317,2024-01-18 09:48:00,0.0
-5380,-640,21732,7746,9992,1920,2024-01-18 09:48:00,0.0
-1276,-168,17996,7519,9380,3149,2024-01-18 09:48:00,0.0
200,852,15252,5479,4052,2710,2024-01-18 09:48:00,0.0
120,1540,13104,2922,1257,2648,2024-01-18 09:48:00,0.0
-288,2640,11460,-30,1233,3281,2024-01-18 09:48:00,0.0
100,3108,11432,-2389,2530,4738,2024-01-18 09:48:00,0.0
1824,2780,12824,-4388,4119,5785,2024-01-18 09:48:00,0.0
3116,2820,13456,-5642,4436,5837,2024-01-18 09:48:00,0.0
2376,2336,15084,-7408,3188,5716,2024-01-18 09:48:00,0.0
872,1756,16676,-8577,2409,7256,2024-01-18 09:48:00,0.0
5080,1300,18880,-8728,-1196,7781,2024-01-18 09:48:00,0.0
6964,888,20384,-8234,-1544,6660,2024-01-18 09:48:00,0.0
7188,1148,21008,-7366,-1248,5576,2024-01-18 09:48:00,0.0
6396,956,22068,-6287,368,4820,2024-01-18 09:48:01,0.0
5400,544,22724,-4338,1445,4417,2024-01-18 09:48:01,0.0
3612,488,24276,-2160,-537,4692,2024-01-18 09:48:01,0.0
4428,748,25296,502,-1200,5722,2024-01-18 09:48:01,0.0
6616,-72,27084,4351,-2471,5609,2024-01-18 09:48:01,0.0
7932,-208,29016,7363,-2477,4337,2024-01-18 09:48:01,0.0
8076,-712,31172,11028,-2880,2923,2024-01-18 09:48:01,0.0
8252,-1104,30876,16006,316,1241,2024-01-18 09:48:01,0.0
6012,-4,30940,20035,-131,468,2024-01-18 09:48:01,0.0
6844,444,30404,24869,2451,536,2024-01-18 09:48:01,0.0
8484,528,28596,29157,4970,315,2024-01-18 09:48:01,0.0
8668,764,25680,31549,5589,-890,2024-01-18 09:48:01,0.0
7092,892,22564,32767,4916,-1788,2024-01-18 09:48:01,0.0
5096,2196,17540,32767,2368,-2596,2024-01-18 09:48:01,0.0
4408,2940,12432,32767,6003,-2444,2024-01-18 09:48:01,0.0
3060,4636,9060,31991,7514,-2449,2024-01-18 09:48:01,0.0
1792,6492,7468,28991,5684,-1586,2024-01-18 09:48:01,0.0
3032,6440,4288,25769,2941,-1078,2024-01-18 09:48:01,0.0
4916,7308,-332,21691,1452,-1631,2024-01-18 09:48:01,0.0
4176,7260,-5016,15486,1581,-3133,2024-01-18 09:48:01,
2732,9724,-10060,7541,729,-3828,2024-01-18 09:48:01,0.0
-1592,11856,-12672,-4475,758,-2714,2024-01-18 09:48:01,0.0
-4068,14096,-9256,-17317,-6541,423,2024-01-18 09:48:01,0.0
-472,10360,-268,-25312,-12099,2969,2024-01-18 09:48:01,0.0
5244,4980,8404,-27538,-11815,2741,2024-01-18 09:48:01,0.0
7284,3924,15208,-24645,-4377,-388,2024-01-18 09:48:01,0.0
3376,5032,19200,-21073,-713,-2183,2024-01-18 09:48:01,0.0
112,5372,22116,-17227,-523,-1773,2024-01-18 09:48:01,0.0
-956,5744,22916,-13964,-2882,-387,2024-01-18 09:48:01,0.0
-540,6412,22072,-11601,-3392,823,2024-01-18 09:48:01,0.0
-732,7068,21452,-10782,-4744,2098,2024-01-18 09:48:01,0.0
1868,7468,20484,-11342,-1760,2888,2024-01-18 09:48:01,0.0
5488,8436,22952,-12986,5903,2628,2024-01-18 09:48:01,0.0
8200,8456,30996,-12881,10029,511,2024-01-18 09:48:01,0.0
8180,6672,32767,-8198,9870,-2461,2024-01-18 09:48:01,0.0
4576,5780,32767,-399,6476,-4655,2024-01-18 09:48:01,0.0
-188,5000,32767,11525,5042,-4001,2024-01-18 09:48:01,0.0
-1148,5392,29412,18218,6996,-2508,2024-01-18 09:48:01,0.0
208,4696,20152,21998,8168,-1350,2024-01-18 09:48:01,0.0
1968,5092,11764,21986,9132,-1108,2024-01-18 09:48:01,0.0
1796,6600,2912,17875,7824,-1389,2024-01-18 09:48:01,0.0
948,7108,-2700,10281,4760,-1251,2024-01-18 09:48:01,0.0
204,8068,-4876,768,-820,-966,2024-01-18 09:48:01,0.0
2028,6860,-1800,-7781,-4494,-552,2024-01-18 09:48:01,0.0
4072,6032,3668,-11828,-4862,-1439,2024-01-18 09:48:01,0.0
4512,5592,9412,-12188,-4080,-2405,2024-01-18 09:48:01,0.0
3412,6036,12596,-10282,-1732,-3394,2024-01-18 09:48:01,0.0
2356,7732,12676,-10026,1112,-4038,2024-01-18 09:48:01,0.0
-1016,7484,15048,-11646,1061,-4388,2024-01-18 09:48:01,0.0
-4180,7872,18296,-13345,2936,-2680,2024-01-18 09:48:01,0.0
-5740,6500,23648,-14159,798,170,2024-01-18 09:48:01,0.0
-2688,5264,28324,-13023,-2664,2884,2024-01-18 09:48:01,0.0
3072,5320,31676,-10037,785,3517,2024-01-18 09:48:01,0.0
7432,4800,32767,-4373,4791,1320,2024-01-18 09:48:01,0.0
6652,4100,32767,2510,6483,-1990,2024-01-18 09:48:01,0.0
1616,3340,28772,11999,2694,-3660,2024-01-18 09:48:01,0.0
-1352,4032,18512,16281,1566,-3622,2024-01-18 09:48:01,0.0
-4140,5268,8900,15050,776,-2014,2024-01-18 09:48:01,0.0
-3264,7092,3792,10055,801,143,2024-01-18 09:48:01,0.0
-1448,8676,3300,3695,-890,1501,2024-01-18 09:48:01,0.0
1456,9192,4688,-1893,-4268,1777,2024-01-18 09:48:02,0.0
2160,9456,8544,-8060,-6543,783,2024-01-18 09:48:02,0.0
1516,7164,13576,-10296,-7180,597,2024-01-18 09:48:02,0.0
736,7260,17904,-9236,337,767,2024-01-18 09:48:02,0.0
-468,6572,20688,-6621,2804,1916,2024-01-18 09:48:02,0.0
944,6672,21016,-3247,7973,3787,2024-01-18 09:48:02,0.0
2080,6372,21540,-350,11423,4675,2024-01-18 09:48:02,0.0
2964,5676,20800,1902,7853,4616,2024-01-18 09:48:02,0.0
2620,5360,18076,3108,5032,3709,2024-01-18 09:48:02,0.0
-3312,6640,13900,1445,10687,7498,2024-01-18 09:48:02,0.0
656,6700,12256,-1291,6834,6329,2024-01-18 09:48:02,0.0
2564,7244,13072,-3905,3103,4351,2024-01-18 09:48:02,0.0
2660,6724,13700,-5987,2943,3581,2024-01-18 09:48:02,0.0
2472,6364,16424,-6713,1007,1897,2024-01-18 09:48:02,0.0
2456,5476,18232,-5760,-531,819,2024-01-18 09:48:02,0.0
2820,5436,17860,-5218,434,-1378,2024-01-18 09:48:02,0.0
660,6328,17656,-4532,7588,-1989,2024-01-18 09:48:02,0.0
-728,5540,18944,-3687,11353,-1743,2024-01-18 09:48:02,0.0
-2132,4936,18988,-2755,5659,-1010,2024-01-18 09:48:02,0.0
-4120,5616,15784,-2023,5106,-260,2024-01-18 09:48:02,0.0
-2160,6232,15132,-1878,5946,1158,2024-01-18 09:48:02,0.0
-384,6272,16148,-2432,6870,1167,2024-01-18 09:48:02,0.0
-1864,5720,17444,-2293,8903,1145,2024-01-18 09:48:02,0.0
-2996,5220,18492,-1040,10664,1739,2024-01-18 09:48:02,0.0
-160,4524,17164,276,11006,1490,2024-01-18 09:48:02,0.0
572,5932,14312,-1033,3977,582,2024-01-18 09:48:02,0.0
-1148,4852,13584,-1479,8567,92,2024-01-18 09:48:02,0.0
-4888,6388,11380,-3446,16511,1714,2024-01-18 09:48:02,0.0
-6044,6468,11944,-6728,15819,3047,2024-01-18 09:48:02,0.0
-3660,5732,12424,-9251,14608,3586,2024-01-18 09:48:02,0.0
-3212,5480,14584,-10363,8409,1810,2024-01-18 09:48:02,0.0
-3232,4284,16292,-10110,2213,297,2024-01-18 09:48:02,0.0
-11316,12408,12940,-9776,3908,-606,2024-01-18 09:48:02,0.0
-5492,4388,16276,-9849,-655,-1263,2024-01-18 09:48:02,0.0
-4260,4396,15996,-11180,2640,-2238,2024-01-18 09:48:02,0.0
-4996,3272,20820,-11829,8138,-3729,2024-01-18 09:48:02,0.0
-5376,2712,23632,-8525,10920,-4814,2024-01-18 09:48:02,0.0
-4928,2152,21956,-6228,10095,-5797,2024-01-18 09:48:02,0.0
-6184,2156,20252,-4146,6416,-5976,2024-01-18 09:48:02,0.0
-7576,1612,19344,-3182,673,-5674,2024-01-18 09:48:02,0.0
-7692,1584,21232,-1740,-5611,-4668,2024-01-18 09:48:02,0.0
-6552,416,22856,219,-10044,-4366,2024-01-18 09:48:02,0.0
-2892,492,22560,2484,-11567,-5126,2024-01-18 09:48:02,0.0
-4948,2272,19856,4142,-4551,-5522,2024-01-18 09:48:02,0.0
-5908,1824,18044,4072,-4026,-4594,2024-01-18 09:48:02,0.0
-5448,1132,17632,3531,-5826,-4036,2024-01-18 09:48:02,0.0
-5340,1396,17100,3326,-6831,-3357,2024-01-18 09:48:02,0.0
-2664,1520,16596,3421,-8951,-3127,2024-01-18 09:48:02,0.0
-6932,3168,16464,3501,-11434,-3648,2024-01-18 09:48:02,0.0
-12144,2396,15640,3371,-8698,-536,2024-01-18 09:48:02,0.0
-10012,2256,15524,2784,-733,3838,2024-01-18 09:48:02,0.0
-3640,376,18168,1842,705,5545,2024-01-18 09:48:02,0.0
400,1076,19072,2618,930,4216,2024-01-18 09:48:02,0.0
1844,632,19280,4711,-208,1457,2024-01-18 09:48:02,0.0
2680,1480,17008,6031,-4212,-2270,2024-01-18 09:48:02,0.0
-228,1560,14480,4813,-8101,-5184,2024-01-18 09:48:02,0.0
-4328,3064,12996,1540,-9746,-4715,2024-01-18 09:48:02,0.0
-5664,3276,15004,-1687,-8893,-2483,2024-01-18 09:48:02,0.0
-7940,2948,15260,-3686,-8271,447,2024-01-18 09:48:02,0.0
-3352,2224,17328,-4091,-5497,1380,2024-01-18 09:48:02,
-3336,2884,20952,-3607,-3718,890,2024-01-18 09:48:03,0.0
-4188,2140,26544,-132,-7058,2166,2024-01-18 09:48:03,0.0
1036,824,24760,3945,-11373,2602,2024-01-18 09:48:03,0.0
4952,2412,20432,6866,-17110,-171,2024-01-18 09:48:03,0.0
220,3024,14212,5976,-16299,-2704,2024-01-18 09:48:03,0.0
-3080,2388,15228,3251,-16925,-2049,2024-01-18 09:48:03,0.0
-1596,3692,16984,1974,-8531,-155,2024-01-18 09:48:03,0.0
564,2792,19684,1062,-1787,1393,2024-01-18 09:48:03,0.0
4848,2548,17696,511,27,1413,2024-01-18 09:48:03,0.0
5976,2768,15296,-360,-4776,-581,2024-01-18 09:48:03,0.0
5072,3312,13852,-2382,-8860,-2428,2024-01-18 09:48:03,0.0
2000,3508,16868,-3777,-12431,-3234,2024-01-18 09:48:03,0.0
1652,2536,22860,-2524,-15667,-2793,2024-01-18 09:48:03,0.0
44,2728,21004,300,-8261,-1946,2024-01-18 09:48:03,0.0
-1764,3292,17072,334,889,-297,2024-01-18 09:48:03,0.0
-696,3696,16288,-1850,636,1090,2024-01-18 09:48:03,0.0
4048,3196,17568,-3898,2893,1416,2024-01-18 09:48:03,0.0
4680,3804,17412,-5233,3534,487,2024-01-18 09:48:03,0.0
2284,4364,20140,-6879,880,182,2024-01-18 09:48:03,0.0
-3252,3084,24164,-6283,-6644,4314,2024-01-18 09:48:03,0.0
-1256,2704,26224,-3231,-4302,8894,2024-01-18 09:48:03,0.0
504,3484,25464,824,-1493,11111,2024-01-18 09:48:03,0.0
7060,4664,20240,1997,-3105,7678,2024-01-18 09:48:03,0.0
7980,6592,18352,1302,-3852,-518,2024-01-18 09:48:03,0.0
4680,5596,18388,-548,-4524,-1698,2024-01-18 09:48:03,0.0
6140,5548,20076,-1368,-1234,-2787,2024-01-18 09:48:03,0.0
3312,5400,23356,740,-378,-1795,2024-01-18 09:48:03,0.0
2856,5288,21452,3273,-1857,-1148,2024-01-18 09:48:03,0.0
5412,4988,19816,3962,-2575,-1427,2024-01-18 09:48:03,0.0
7316,4652,20804,4081,-2319,-2703,2024-01-18 09:48:03,0.0
5072,3468,23916,7165,-4889,-3569,2024-01-18 09:48:03,0.0
4836,2984,21624,9810,-5050,-2942,2024-01-18 09:48:03,0.0
3552,3512,18172,10576,-3446,-2185,2024-01-18 09:48:03,0.0
2604,4024,15140,8794,-3044,-870,2024-01-18 09:48:03,0.0
2612,3728,18204,7848,-2234,-55,2024-01-18 09:48:03,0.0
2244,3412,21376,10064,-844,689,2024-01-18 09:48:03,0.0
2592,3492,18756,12588,-3236,1225,2024-01-18 09:48:03,0.0
5152,4108,15828,12576,-3673,653,2024-01-18 09:48:03,0.0
4744,4464,14332,11333,-4122,-406,2024-01-18 09:48:03,0.0
1836,4424,12160,9016,-1643,900,2024-01-18 09:48:03,0.0
1488,4724,11660,6484,-2136,2929,2024-01-18 09:48:03,0.0
4736,5876,11724,4350,-2960,3665,2024-01-18 09:48:03,0.0
5792,6532,12436,2998,-4201,2514,2024-01-18 09:48:03,0.0
5284,6344,14480,2908,-5697,1920,2024-01-18 09:48:03,0.0
4776,6048,16164,4075,-4828,2432,2024-01-18 09:48:03,0.0
5160,6224,15092,5246,-3140,3539,2024-01-18 09:48:03,0.0
6316,6684,13232,5722,-3084,3771,2024-01-18 09:48:03,0.0
6752,7272,11292,4910,-3901,3012,2024-01-18 09:48:03,0.0
6148,6928,11572,3684,-4078,2444,2024-01-18 09:48:03,0.0
4704,7248,13244,2223,-4479,2550,2024-01-18 09:48:03,0.0
4736,7416,16264,1668,-2880,3252,2024-01-18 09:48:03,0.0
4408,6916,19432,2386,-171,4956,2024-01-18 09:48:03,0.0
6720,7288,20448,4514,2962,6373,2024-01-18 09:48:03,0.0
9940,8532,17488,5096,6323,5933,2024-01-18 09:48:03,0.0
10976,9584,17356,4025,6742,3503,2024-01-18 09:48:03,0.0
10660,11192,21464,3496,3957,1141,2024-01-18 09:48:03,0.0
9144,11780,24484,4564,3592,-502,2024-01-18 09:48:03,0.0
7400,11428,22632,6677,4181,-576,2024-01-18 09:48:03,0.0
7016,11788,20192,7616,4130,36,2024-01-18 09:48:03,0.0
7160,11248,17132,8655,5915,429,2024-01-18 09:48:03,0.0
7464,10872,13044,8085,6628,695,2024-01-18 09:48:04,0.0
8384,11728,7880,5898,5834,-220,2024-01-18 09:48:04,0.0
8392,11288,6436,1932,1986,-1345,2024-01-18 09:48:04,0.0
6864,9352,9668,-1663,-2934,-2386,2024-01-18 09:48:04,0.0
4920,8236,13984,-2439,-4656,-1536,2024-01-18 09:48:04,0.0
5364,7068,15836,-1706,-3244,434,2024-01-18 09:48:04,0.0
6980,6652,15284,-947,1236,1772,2024-01-18 09:48:04,0.0
9168,7600,12744,-831,5793,1117,2024-01-18 09:48:04,0.0
6900,7272,8180,-2598,6013,-887,2024-01-18 09:48:04,0.0
2704,6664,6872,-6827,4970,-2130,2024-01-18 09:48:04,0.0
-156,5204,7868,-10883,4372,-1009,2024-01-18 09:48:04,0.0
-328,4012,12560,-14377,2808,1696,2024-01-18 09:48:04,0.0
2664,3380,17324,-14197,2903,3051,2024-01-18 09:48:04,0.0
4180,3628,18996,-12218,3077,2842,2024-01-18 09:48:04,0.0
5400,3148,19920,-10603,2346,1541,2024-01-18 09:48:04,0.0
3228,3664,21560,-9242,800,632,2024-01-18 09:48:04,0.0
2816,3176,26220,-5934,-2032,364,2024-01-18 09:48:04,0.0
2940,2944,27800,-517,-2901,389,2024-01-18 09:48:04,0.0
4828,5444,26596,-777,-2352,847,2024-01-18 09:48:04,0.0
6716,632,27952,3942,-1159,1685,2024-01-18 09:48:04,0.0
708,2300,23096,3933,984,5145,2024-01-18 09:48:04,0.0
8320,4288,19916,4522,5466,6616,2024-01-18 09:48:04,0.0
10552,5868,16516,6138,11009,3992,2024-01-18 09:48:04,0.0
8976,6656,10832,5230,10801,1440,2024-01-18 09:48:04,0.0
6880,7964,8996,2225,6053,128,2024-01-18 09:48:04,0.0
6576,8140,12772,-289,-759,-1313,2024-01-18 09:48:04,0.0
6552,7252,18248,574,-2752,-2275,2024-01-18 09:48:04,0.0
6140,7008,19616,1697,-2158,-2570,2024-01-18 09:48:04,0.0
5812,6652,19172,1239,1088,-2460,2024-01-18 09:48:04,0.0
4360,6500,17732,428,4958,-2008,2024-01-18 09:48:04,0.0
2060,6236,15716,-1069,7894,-1104,2024-01-18 09:48:04,0.0
652,5892,15116,-3133,8409,378,2024-01-18 09:48:04,0.0
1880,5576,17528,-4207,6022,1639,2024-01-18 09:48:04,0.0
4280,5812,19420,-3753,2424,1737,2024-01-18 09:48:04,0.0
5712,5680,22384,-2598,-1021,751,2024-01-18 09:48:04,0.0
5712,4604,24908,758,-2259,-924,2024-01-18 09:48:04,0.0
4764,4660,22396,4005,745,-1656,2024-01-18 09:48:04,0.0
4360,4136,18252,4555,5403,-1846,2024-01-18 09:48:04,0.0
3632,4792,15532,3051,7718,-1863,2024-01-18 09:48:04,0.0
3468,4908,16384,1317,6029,-2148,2024-01-18 09:48:04,
2312,5000,20952,1897,1283,-2955,2024-01-18 09:48:04,0.0
3508,4232,24032,4737,-3266,-4092,2024-01-18 09:48:04,0.0
4516,3648,23428,9315,-2048,-5841,2024-01-18 09:48:04,0.0
3700,3080,19156,12572,1551,-7141,2024-01-18 09:48:04,0.0
1556,4428,14760,13262,6430,-6804,2024-01-18 09:48:04,0.0
1200,5296,11968,11507,8489,-5824,2024-01-18 09:48:04,0.0
112,5672,13292,8912,7999,-4885,2024-01-18 09:48:04,0.0
-732,6464,15656,7726,8501,-3390,2024-01-18 09:48:04,0.0
-1800,7068,16628,6911,5461,-1846,2024-01-18 09:48:04,0.0
-1492,7416,15844,5501,3961,-277,2024-01-18 09:48:04,0.0
-836,8820,14720,4055,6643,1736,2024-01-18 09:48:04,0.0
496,8628,14076,2510,15496,3264,2024-01-18 09:48:04,0.0
1032,9280,14612,2271,16537,3525,2024-01-18 09:48:04,0.0
1200,10948,13116,1652,11433,2866,2024-01-18 09:48:04,0.0
892,10920,12816,327,4943,1517,2024-01-18 09:48:04,0.0
-260,10304,12316,-1381,-1045,863,2024-01-18 09:48:04,0.0
-1828,9424,13064,-2837,-4347,1932,2024-01-18 09:48:04,0.0
-2492,9436,13736,-3843,-2953,4702,2024-01-18 09:48:04,0.0
-1448,9688,15208,-4790,72,7191,2024-01-18 09:48:04,0.0
1932,9608,15436,-5191,3288,7973,2024-01-18 09:48:04,0.0
2708,9804,16364,-5141,4951,6883,2024-01-18 09:48:05,0.0
1664,9988,17428,-4566,2473,5872,2024-01-18 09:48:05,0.0
460,9284,18092,-3229,-95,5714,2024-01-18 09:48:05,0.0
640,9024,16724,-2400,-3163,6458,2024-01-18 09:48:05,0.0
2176,9396,15656,-2625,-3769,6548,2024-01-18 09:48:05,0.0
3476,9520,15432,-3519,-3283,6147,2024-01-18 09:48:05,0.0
4048,10100,15960,-4463,-494,5408,2024-01-18 09:48:05,0.0
3708,9972,15820,-4770,1716,4814,2024-01-18 09:48:05,0.0
4404,9636,16028,-5171,1312,3966,2024-01-18 09:48:05,0.0
3900,9604,17472,-5101,673,3701,2024-01-18 09:48:05,0.0
5348,9748,17884,-5049,437,3211,2024-01-18 09:48:05,0.0
5484,9616,18488,-4780,1104,2500,2024-01-18 09:48:05,0.0
4480,9216,19384,-4174,1942,2525,2024-01-18 09:48:05,0.0
4948,8624,20456,-2501,4169,2518,2024-01-18 09:48:05,0.0
4908,8568,20228,-46,4294,2470,2024-01-18 09:48:05,0.0
4628,8592,17588,2790,3784,2541,2024-01-18 09:48:05,0.0
4168,8640,14980,3354,2021,3168,2024-01-18 09:48:05,0.0
5204,8484,13712,3404,1173,3419,2024-01-18 09:48:05,0.0
6248,8100,12992,3304,497,2791,2024-01-18 09:48:05,0.0
6204,7936,12244,2949,-110,1597,2024-01-18 09:48:05,0.0
5988,8128,11280,2019,-1035,527,2024-01-18 09:48:05,0.0
4944,8636,11944,842,-1972,106,2024-01-18 09:48:05,0.0
3924,8248,13476,816,-2815,920,2024-01-18 09:48:05,0.0
5452,8204,13396,1290,-3043,1915,2024-01-18 09:48:05,0.0
7960,8364,13312,1503,-4582,1502,2024-01-18 09:48:05,0.0
10176,8968,12156,1309,-5211,-486,2024-01-18 09:48:05,0.0
9120,8964,11128,-718,-5974,-3091,2024-01-18 09:48:05,0.0
7008,9788,12064,-2897,-4801,-4535,2024-01-18 09:48:05,0.0
3780,9212,13316,-4028,-5460,-4915,2024-01-18 09:48:05,0.0
1828,9116,14256,-4512,-6835,-3648,2024-01-18 09:48:05,0.0
4520,8948,14956,-5409,-6832,-2733,2024-01-18 09:48:05,0.0
6868,9424,16020,-6685,-5823,-3883,2024-01-18 09:48:05,0.0
4776,8716,18656,-7043,-7431,-5857,2024-01-18 09:48:05,0.0
3416,8896,21404,-5345,-6233,-6138,2024-01-18 09:48:05,0.0
2568,8468,21220,-3157,-4404,-5582,2024-01-18 09:48:05,0.0
944,9032,19824,-1442,-4977,-4535,2024-01-18 09:48:05,0.0
1316,9188,18748,-192,-6656,-3390,2024-01-18 09:48:05,0.0
3548,10444,17456,627,-8112,-3243,2024-01-18 09:48:05,0.0
5028,10492,15372,85,-9083,-4186,2024-01-18 09:48:05,0.0
4712,10748,13288,-1395,-9186,-4847,2024-01-18 09:48:05,0.0
3856,9240,15076,-3348,-9529,-5051,2024-01-18 09:48:05,0.0
3296,9772,16404,-3654,-6408,-4340,2024-01-18 09:48:05,0.0
3044,8816,16956,-3416,-3602,-3574,2024-01-18 09:48:05,0.0
2712,9148,17320,-2889,-3066,-2665,2024-01-18 09:48:05,0.0
4820,9588,17748,-1985,-4086,-2619,2024-01-18 09:48:05,0.0
6824,10028,18076,-727,-2623,-3862,2024-01-18 09:48:05,0.0
7916,9748,15956,-566,-1649,-6317,2024-01-18 09:48:05,0.0
5924,9084,15440,-1163,-2364,-8111,2024-01-18 09:48:05,0.0
1856,8796,15272,-2248,-3806,-7509,2024-01-18 09:48:05,0.0
992,8092,16304,-2926,-4222,-5386,2024-01-18 09:48:05,0.0
1508,8508,17604,-3097,-4929,-3459,2024-01-18 09:48:05,0.0
3024,8348,17836,-2773,-5573,-2383,2024-01-18 09:48:05,0.0
4872,7248,17728,-1593,-4133,-2149,2024-01-18 09:48:05,0.0
5344,7536,17024,-927,-4154,-2093,2024-01-18 09:48:05,0.0
6840,7520,15916,-716,-3875,-3015,2024-01-18 09:48:05,0.0
6544,8088,15740,-944,-3036,-3973,2024-01-18 09:48:05,0.0
6100,7916,15412,-1965,-4079,-4961,2024-01-18 09:48:05,0.0
3976,8144,15780,-2925,-5400,-4668,2024-01-18 09:48:05,0.0
4156,7248,15568,-3829,-5723,-3760,2024-01-18 09:48:05,0.0
3960,6260,15752,-4508,-3544,-2651,2024-01-18 09:48:05,0.0
2916,6720,17220,-3805,-2269,-1575,2024-01-18 09:48:06,0.0
3820,6456,17640,-2871,-2799,-421,2024-01-18 09:48:06,0.0
5200,6376,17552,-1422,-2693,15,2024-01-18 09:48:06,0.0
6444,6956,16700,-225,-785,-502,2024-01-18 09:48:06,0.0
6572,6920,16376,-321,-648,-1038,2024-01-18 09:48:06,0.0
5704,6936,16336,-851,-1544,-1243,2024-01-18 09:48:06,0.0
5468,6828,16844,-994,-1350,-757,2024-01-18 09:48:06,0.0
5848,6512,17508,-737,-770,-287,2024-01-18 09:48:06,0.0
5888,6500,17596,-151,-135,-36,2024-01-18 09:48:06,0.0
5424,6552,17468,584,-1036,168,2024-01-18 09:48:06,0.0
6076,6660,17056,1093,-2360,423,2024-01-18 09:48:06,0.0
7328,7208,16744,935,-1999,352,2024-01-18 09:48:06,0.0
7660,7340,16568,470,-2514,194,2024-01-18 09:48:06,0.0
7664,7208,16120,78,-1338,16,2024-01-18 09:48:06,0.0
7472,7428,15768,-463,-664,-12,2024-01-18 09:48:06,0.0
7032,7600,16188,-860,-836,16,2024-01-18 09:48:06,0.0
7032,7632,16396,-876,-1137,270,2024-01-18 09:48:06,0.0
7660,7924,16748,-805,-1200,247,2024-01-18 09:48:06,0.0
8200,8000,17024,-690,-686,153,2024-01-18 09:48:06,0.0
8100,8136,17244,-691,-1033,-35,2024-01-18 09:48:06,
8232,8092,16924,-725,-2595,-425,2024-01-18 09:48:06,0.0
8792,8148,16616,-571,-1760,-1042,2024-01-18 09:48:06,0.0
8752,7904,16992,-184,516,-2079,2024-01-18 09:48:06,0.0
7344,8716,16820,62,1938,-2555,2024-01-18 09:48:06,0.0
8268,8440,15024,-703,3044,-2732,2024-01-18 09:48:06,0.0
8796,8296,13428,-2562,6144,-3443,2024-01-18 09:48:06,0.0
7584,8248,13284,-5259,8139,-4085,2024-01-18 09:48:06,0.0
6036,7280,14268,-7541,7136,-4068,2024-01-18 09:48:06,0.0
4724,6996,16004,-8433,4854,-3502,2024-01-18 09:48:06,0.0
4752,5556,18068,-8077,1636,-2444,2024-01-18 09:48:06,0.0
5244,5212,19808,-6691,-894,-2215,2024-01-18 09:48:06,0.0
5448,5064,20532,-4306,-1877,-1957,2024-01-18 09:48:06,0.0
5968,4684,20648,-1403,-1196,-2129,2024-01-18 09:48:06,0.0
5888,4824,19496,1410,210,-2429,2024-01-18 09:48:06,0.0
6268,5452,17716,2566,223,-2564,2024-01-18 09:48:06,0.0
6532,5496,15760,2150,730,-2738,2024-01-18 09:48:06,0.0
5932,5528,14932,875,717,-2726,2024-01-18 09:48:06,0.0
5272,5216,15284,-404,8,-2484,2024-01-18 09:48:06,0.0
4564,5492,16336,-701,-183,-2001,2024-01-18 09:48:06,0.0
4988,5600,16304,-653,1418,-1091,2024-01-18 09:48:06,0.0
5164,5696,15868,-789,3904,-750,2024-01-18 09:48:06,0.0
4996,5824,15492,-1126,6266,-521,2024-01-18 09:48:06,0.0
5272,6096,15404,-1447,9235,-515,2024-01-18 09:48:06,0.0
5304,6528,15260,-2000,11721,-594,2024-01-18 09:48:06,0.0
5080,6180,16072,-2964,11947,-1198,2024-01-18 09:48:06,0.0
3156,6536,17660,-4810,5087,-2076,2024-01-18 09:48:06,0.0
2760,5584,19336,-5457,67,-1968,2024-01-18 09:48:06,0.0
2100,5196,20988,-4488,-1566,-1184,2024-01-18 09:48:06,0.0
3128,4556,21364,-2854,-2805,-440,2024-01-18 09:48:06,0.0
4436,4764,21004,-1208,-1746,-258,2024-01-18 09:48:06,0.0
4672,5288,20336,135,278,-493,2024-01-18 09:48:06,0.0
4352,4892,19300,996,2587,-701,2024-01-18 09:48:06,0.0
3784,5364,18124,1388,2989,-591,2024-01-18 09:48:06,0.0
3404,5756,16976,1081,2486,-519,2024-01-18 09:48:06,0.0
3520,5672,16604,214,993,-552,2024-01-18 09:48:06,0.0
3708,5640,17224,-580,263,-547,2024-01-18 09:48:06,0.0
3572,5620,17696,-872,448,-473,2024-01-18 09:48:06,0.0
3676,5276,17692,-1056,1637,-390,2024-01-18 09:48:06,0.0
3132,5324,17548,-1155,2336,-85,2024-01-18 09:48:06,0.0
3072,5120,17336,-1497,2203,245,2024-01-18 09:48:06,0.0
2984,4956,17680,-1869,1576,645,2024-01-18 09:48:07,0.0
3756,5024,18356,-2104,1538,985,2024-01-18 09:48:07,0.0
4688,5128,17856,-1959,2207,889,2024-01-18 09:48:07,0.0
5204,4940,17580,-1628,3116,34,2024-01-18 09:48:07,0.0
3968,5640,17416,-1912,1060,-301,2024-01-18 09:48:07,0.0
4012,5612,16308,-2828,-57,6,2024-01-18 09:48:07,0.0
4924,5132,15504,-3299,3374,783,2024-01-18 09:48:07,0.0
3888,5520,15080,-3635,7671,1638,2024-01-18 09:48:07,0.0
4792,5308,15300,-4612,8512,2442,2024-01-18 09:48:07,0.0
5136,5628,16980,-5446,5379,1735,2024-01-18 09:48:07,0.0
4940,5872,17772,-5915,1022,289,2024-01-18 09:48:07,0.0
5488,4884,19164,-4964,-1853,-1094,2024-01-18 09:48:07,0.0
7172,4068,18244,-3870,-481,-2743,2024-01-18 09:48:07,0.0
6516,4560,18736,-3269,1698,-4400,2024-01-18 09:48:07,0.0
6956,4652,19064,-4372,-2350,-7869,2024-01-18 09:48:07,0.0
5064,5024,23984,-2928,-7430,-10897,2024-01-18 09:48:07,0.0
2172,2352,24568,-230,-11397,-10758,2024-01-18 09:48:07,0.0
-148,2172,23444,961,-10142,-7750,2024-01-18 09:48:07,0.0
-160,2836,23080,2992,-5390,-3476,2024-01-18 09:48:07,0.0
1216,3456,20524,3869,-5342,-1616,2024-01-18 09:48:07,0.0
2956,3672,17120,3593,-5432,-1285,2024-01-18 09:48:07,0.0
3280,3772,15472,2363,-5439,-1764,2024-01-18 09:48:07,0.0
1320,3076,15148,892,-6457,-2091,2024-01-18 09:48:07,0.0
-1640,2192,13264,-1004,-4771,-498,2024-01-18 09:48:07,0.0
-3000,2420,12952,-2798,-2194,2225,2024-01-18 09:48:07,0.0
-3336,2016,13256,-4295,-1750,4738,2024-01-18 09:48:07,0.0
-4160,1944,14976,-4210,-4223,7935,2024-01-18 09:48:07,0.0
-1832,1836,14644,-3027,-6128,11216,2024-01-18 09:48:07,0.0
2708,2728,14520,-2766,-4396,13234,2024-01-18 09:48:07,0.0
6140,3356,14412,-3411,-1325,13870,2024-01-18 09:48:07,0.0
7944,3520,15772,-4212,241,14515,2024-01-18 09:48:07,0.0
10800,3040,18604,-4900,-54,13846,2024-01-18 09:48:07,0.0
13184,2252,19992,-4567,-1973,12147,2024-01-18 09:48:07,0.0
15036,2592,22960,-4209,-9728,9593,2024-01-18 09:48:07,0.0
21372,2484,26472,-3513,-13850,5281,2024-01-18 09:48:07,0.0
23184,2476,31064,-2864,-9524,497,2024-01-18 09:48:07,0.0
21620,1720,32767,-575,-1870,-4061,2024-01-18 09:48:07,0.0
17708,1304,32767,2111,4892,-6766,2024-01-18 09:48:07,0.0
12600,1044,32452,5487,9351,-7740,2024-01-18 09:48:07,0.0
6904,596,30112,9165,11089,-6012,2024-01-18 09:48:07,0.0
7316,1380,26584,12942,9166,-4402,2024-01-18 09:48:07,0.0
8448,2488,22392,14606,9266,-6056,2024-01-18 09:48:07,0.0
8080,2780,17700,16602,9639,-7958,2024-01-18 09:48:07,0.0
6096,2792,13560,18032,6253,-9130,2024-01-18 09:48:07,0.0
4696,4188,7228,17501,2259,-11439,2024-01-18 09:48:07,0.0
348,3928,3952,14393,-3542,-12264,2024-01-18 09:48:07,0.0
-512,4800,2552,9621,-4984,-11230,2024-01-18 09:48:07,0.0
-2852,4652,2172,5955,-4277,-10453,2024-01-18 09:48:07,0.0
-6060,3780,3636,1437,-6671,-6438,2024-01-18 09:48:07,0.0
-5116,4104,5360,-1443,-5900,-2762,2024-01-18 09:48:07,0.0
-3572,4192,7100,-3528,-2878,-229,2024-01-18 09:48:07,0.0
-3252,3276,8512,-4925,-419,2187,2024-01-18 09:48:07,0.0
-2236,2260,7316,-6554,852,4462,2024-01-18 09:48:07,0.0
-968,1852,6288,-9258,1990,5757,2024-01-18 09:48:07,0.0
32,1484,6408,-12640,2836,6188,2024-01-18 09:48:07,0.0
784,476,9024,-15427,3946,6561,2024-01-18 09:48:07,0.0
-1576,732,12236,-16796,5113,7312,2024-01-18 09:48:07,0.0
-3512,-740,15012,-15967,3512,9467,2024-01-18 09:48:07,0.0
-2232,-1752,14184,-15360,1611,12635,2024-01-18 09:48:07,0.0
2428,-2516,14600,-17339,2780,14675,2024-01-18 09:48:07,
5692,-2464,19188,-18514,3960,14871,2024-01-18 09:48:08,0.0
8560,-3928,24332,-18230,1752,13421,2024-01-18 09:48:08,0.0
10352,-4508,30148,-16554,-3523,11355,2024-01-18 09:48:08,0.0
11108,-5104,32767,-12753,-6220,9523,2024-01-18 09:48:08,0.0
12912,-4172,32767,-7474,-4585,8467,2024-01-18 09:48:08,0.0
11508,-2320,32767,-1198,-1830,6738,2024-01-18 09:48:08,0.0
9584,-760,32767,5427,-1706,5653,2024-01-18 09:48:08,0.0
11500,1140,28260,9582,-1947,4533,2024-01-18 09:48:08,0.0
11904,3232,21016,10056,-2257,1447,2024-01-18 09:48:08,0.0
9428,3660,18620,9196,-3930,-1591,2024-01-18 09:48:08,0.0
4428,3184,17980,8791,-4219,-2775,2024-01-18 09:48:08,0.0
988,2972,17256,7991,-6385,-1592,2024-01-18 09:48:08,0.0
1532,2384,18508,7142,-4277,313,2024-01-18 09:48:08,0.0
2896,896,20104,8130,307,2075,2024-01-18 09:48:08,0.0
4860,1604,19768,9018,3893,3059,2024-01-18 09:48:08,0.0
5904,2396,18132,9085,5277,3284,2024-01-18 09:48:08,0.0
3748,2372,20860,10869,-5089,3991,2024-01-18 09:48:08,0.0
4604,548,23708,16614,-6166,4123,2024-01-18 09:48:08,0.0
5128,596,20984,20371,227,3123,2024-01-18 09:48:08,0.0
4304,244,19032,21807,6579,4056,2024-01-18 09:48:08,0.0
3120,2404,14292,20959,12098,5951,2024-01-18 09:48:08,0.0
1964,2792,11936,16293,14073,8306,2024-01-18 09:48:08,0.0
-632,5944,10316,10692,12853,10481,2024-01-18 09:48:08,0.0
-1448,5236,11844,3612,6096,13017,2024-01-18 09:48:08,0.0
-572,3524,15160,179,4532,15828,2024-01-18 09:48:08,0.0
72,2884,18020,-969,6677,18899,2024-01-18 09:48:08,0.0
876,2296,20044,-379,9532,21435,2024-01-18 09:48:08,0.0
2676,1144,21364,1369,11682,22693,2024-01-18 09:48:08,0.0
3784,496,22152,3406,12026,23281,2024-01-18 09:48:08,0.0
4572,1172,20532,5336,10668,23184,2024-01-18 09:48:08,0.0
5744,2144,21172,6625,5580,23536,2024-01-18 09:48:08,0.0
8768,2368,22264,8589,2590,23638,2024-01-18 09:48:08,0.0
9496,1276,24900,12165,-1413,25183,2024-01-18 09:48:08,0.0
11416,1116,23180,16161,-2026,28185,2024-01-18 09:48:08,0.0
15568,1048,20372,18765,-4617,28546,2024-01-18 09:48:08,0.0
16852,3156,15660,19326,-9211,27003,2024-01-18 09:48:08,0.0
17312,4032,11112,17971,-10693,25445,2024-01-18 09:48:08,0.0
17272,4628,9000,15094,-12107,23600,2024-01-18 09:48:08,0.0
16812,5328,7808,12191,-10857,22127,2024-01-18 09:48:08,0.0
16784,4824,8800,9611,-9658,20505,2024-01-18 09:48:08,0.0
16964,5260,10300,7961,-8180,18944,2024-01-18 09:48:08,0.0
16088,5508,10568,7270,-5410,17425,2024-01-18 09:48:08,0.0
15216,5932,11092,7036,-3157,16192,2024-01-18 09:48:08,0.0
15964,6536,10660,6726,-970,14699,2024-01-18 09:48:08,0.0
15724,7104,10448,6308,928,13174,2024-01-18 09:48:08,0.0
14684,7812,10044,5736,1714,11679,2024-01-18 09:48:08,0.0
13036,8116,12620,5378,7,11021,2024-01-18 09:48:08,0.0
13152,8268,15660,7205,-2232,10977,2024-01-18 09:48:08,0.0
13660,8488,16744,9670,-2723,11016,2024-01-18 09:48:08,0.0
16320,8292,17912,12665,-1589,10626,2024-01-18 09:48:08,0.0
17852,8844,15512,14271,3797,9169,2024-01-18 09:48:08,0.0
16800,9940,13764,13713,9078,7820,2024-01-18 09:48:08,0.0
16120,10484,14556,12259,11847,6801,2024-01-18 09:48:08,0.0
14696,10936,16396,12013,11050,5850,2024-01-18 09:48:08,0.0
12892,10180,17904,13550,7563,5350,2024-01-18 09:48:08,0.0
11492,10096,17648,15092,5733,5707,2024-01-18 09:48:08,0.0
14732,10624,15540,16015,4787,5501,2024-01-18 09:48:08,0.0
15720,9660,13656,15069,4255,3239,2024-01-18 09:48:08,0.0
15028,10108,11808,12869,3738,1345,2024-01-18 09:48:08,0.0
12952,8416,12876,10876,3516,880,2024-01-18 09:48:08,0.0
12856,6692,12756,9666,4282,799,2024-01-18 09:48:08,0.0
12916,5660,12328,8682,4126,459,2024-01-18 09:48:09,0.0
12984,6008,14200,8498,2606,-18,2024-01-18 09:48:09,0.0
13488,6004,14796,9092,748,-832,2024-01-18 09:48:09,0.0
14168,6456,14124,9728,-829,-2001,2024-01-18 09:48:09,0.0
13356,7052,11984,9467,-1506,-3308,2024-01-18 09:48:09,0.0
13388,6352,11204,9518,2005,-4987,2024-01-18 09:48:09,0.0
11216,6300,10688,8015,5843,-5147,2024-01-18 09:48:09,0.0
9456,7304,10616,5687,9965,-4015,2024-01-18 09:48:09,0.0
7120,8980,10224,2159,12603,-1761,2024-01-18 09:48:09,0.0
7740,9240,11520,-536,13295,-184,2024-01-18 09:48:09,0.0
8492,9920,12808,-2159,14964,981,2024-01-18 09:48:09,0.0
10080,10476,14220,-2800,13918,567,2024-01-18 09:48:09,0.0
10924,11120,15096,-2408,12291,-1298,2024-01-18 09:48:09,0.0
10896,10924,15292,-637,11302,-3834,2024-01-18 09:48:09,0.0
9572,11040,15900,2212,11213,-5333,2024-01-18 09:48:09,0.0
6188,12344,14372,4661,12510,-4969,2024-01-18 09:48:09,0.0
5272,12376,12628,6807,10629,-3373,2024-01-18 09:48:09,0.0
5868,12544,12472,6559,1122,-2934,2024-01-18 09:48:09,0.0
6468,13796,13376,5791,-5007,-2995,2024-01-18 09:48:09,0.0
7752,13864,13080,4017,-8721,-3159,2024-01-18 09:48:09,0.0
9512,11772,15856,2778,-10893,-3836,2024-01-18 09:48:09,0.0
9920,9684,16644,3924,-4855,-4489,2024-01-18 09:48:09,0.0
11852,7704,14004,5512,3759,-4510,2024-01-18 09:48:09,0.0
11232,8696,9992,4985,10119,-3982,2024-01-18 09:48:09,0.0
10428,9424,6744,2722,13099,-3892,2024-01-18 09:48:09,0.0
7740,9936,7340,-93,12344,-3749,2024-01-18 09:48:09,0.0
3784,10508,8220,-2664,7786,-1838,2024-01-18 09:48:09,0.0
2920,11364,9068,-5926,-430,1931,2024-01-18 09:48:09,0.0
7848,9600,10876,-7714,1109,4320,2024-01-18 09:48:09,0.0
11640,7512,14196,-7699,10379,5494,2024-01-18 09:48:09,0.0
10472,8404,17972,-5300,15524,6501,2024-01-18 09:48:09,0.0
9388,9132,16404,-2727,16302,7321,2024-01-18 09:48:09,0.0
10252,11120,12608,-2519,17572,7924,2024-01-18 09:48:09,0.0
6912,11760,8160,-5006,15466,8126,2024-01-18 09:48:09,0.0
6792,13484,6228,-10703,8449,9211,2024-01-18 09:48:09,0.0
9424,12120,6668,-16597,6798,8885,2024-01-18 09:48:09,0.0
8324,9908,9056,-22134,5813,9382,2024-01-18 09:48:09,0.0
7504,7640,11812,-26150,7980,10635,2024-01-18 09:48:09,0.0
7836,6832,16796,-26753,13554,11780,2024-01-18 09:48:09,
9456,5900,17344,-25200,18273,11600,2024-01-18 09:48:09,0.0
8496,5352,19456,-22320,18907,10848,2024-01-18 09:48:09,0.0
8156,6156,20640,-17101,18385,9958,2024-01-18 09:48:09,0.0
9148,6356,21076,-9540,15840,8232,2024-01-18 09:48:09,0.0
10688,2792,22764,-971,13991,5830,2024-01-18 09:48:09,0.0
13628,5612,17088,2700,11986,440,2024-01-18 09:48:09,0.0
12896,7228,15404,3461,8432,-5383,2024-01-18 09:48:09,0.0
10012,8656,13696,1364,4365,-9674,2024-01-18 09:48:09,0.0
6616,6432,14956,-2233,266,-11756,2024-01-18 09:48:09,0.0
6056,5184,16756,-5068,950,-11506,2024-01-18 09:48:09,0.0
4696,3788,22912,-7133,-60,-10138,2024-01-18 09:48:09,0.0
4232,3556,32767,-4407,-5312,-6660,2024-01-18 09:48:09,0.0
7288,5424,32767,3384,-11070,-2746,2024-01-18 09:48:09,0.0
12056,5500,32767,13922,-14371,-527,2024-01-18 09:48:09,0.0
15432,6372,32767,20870,-15041,-295,2024-01-18 09:48:09,0.0
19824,7448,32048,22885,-16182,-2527,2024-01-18 09:48:09,0.0
21396,7308,30024,22449,-20051,-8524,2024-01-18 09:48:09,0.0
21612,5376,31232,22084,-23224,-14436,2024-01-18 09:48:09,0.0
15480,-104,31928,23019,-29506,-20997,2024-01-18 09:48:09,0.0
9624,-1020,31128,26885,-31499,-22840,2024-01-18 09:48:09,0.0
7036,-5072,25808,28264,-27982,-23233,2024-01-18 09:48:09,0.0
1708,-6052,21144,30120,-23140,-23121,2024-01-18 09:48:10,0.0
-2000,-5588,12636,32299,-21161,-23093,2024-01-18 09:48:10,0.0
-7740,-7096,-1520,30148,-19347,-21467,2024-01-18 09:48:10,0.0
-17884,-6712,-14968,19751,-22315,-17820,2024-01-18 09:48:10,0.0
-20512,-6188,-14896,9302,-22616,-12819,2024-01-18 09:48:10,0.0
-21840,-4488,-7584,2562,-19547,-7305,2024-01-18 09:48:10,0.0
-22092,-4216,-2876,1892,-14223,-1736,2024-01-18 09:48:10,0.0
-21376,-3868,-3672,2055,-9004,3174,2024-01-18 09:48:10,0.0
-19804,-3200,-8504,-278,-1423,9106,2024-01-18 09:48:10,0.0
-15688,-2712,-10628,-4962,4880,13487,2024-01-18 09:48:10,0.0
-11024,-1876,-9828,-10431,10729,16239,2024-01-18 09:48:10,0.0
-7440,-2000,-8836,-15055,15075,17222,2024-01-18 09:48:10,0.0
-5356,-2132,-7712,-19425,18647,17298,2024-01-18 09:48:10,0.0
-4544,-2592,-5460,-24152,22476,17353,2024-01-18 09:48:10,0.0
-3512,-3868,-500,-28657,27258,18451,2024-01-18 09:48:10,0.0
568,-3804,5544,-32768,29287,18880,2024-01-18 09:48:10,0.0
4952,-4128,13984,-32768,25926,17529,2024-01-18 09:48:10,0.0
11148,-4112,24968,-32768,23525,15691,2024-01-18 09:48:10,0.0
19196,-2684,32767,-32768,25311,10512,2024-01-18 09:48:10,0.0
18456,92,32767,-32768,23781,4346,2024-01-18 09:48:10,0.0
16128,1852,32767,-32768,19280,2209,2024-01-18 09:48:10,0.0
14724,3892,32767,-27602,10504,3011,2024-01-18 09:48:10,0.0
16932,6180,32767,-21072,6784,4006,2024-01-18 09:48:10,0.0
19344,8588,32767,-14933,4413,3900,2024-01-18 09:48:10,0.0
22752,10240,32767,-6169,6812,2258,2024-01-18 09:48:10,0.0
21396,9760,32767,8018,10411,-1471,2024-01-18 09:48:10,0.0
16304,8736,32767,16640,9582,-3456,2024-01-18 09:48:10,0.0
9732,7148,32767,20411,3638,-3713,2024-01-18 09:48:10,0.0
4588,4856,31408,22771,-5093,-2015,2024-01-18 09:48:10,0.0
3248,2892,27668,25789,-12423,67,2024-01-18 09:48:10,0.0
4480,1028,24112,30046,-17622,664,2024-01-18 09:48:10,0.0
7116,-1148,16876,32767,-21332,-1166,2024-01-18 09:48:10,0.0
7016,-3712,8308,32767,-19550,-4157,2024-01-18 09:48:10,0.0
3244,-5804,248,31496,-14255,-6538,2024-01-18 09:48:10,0.0
-3600,-6060,-4668,26385,-9229,-5886,2024-01-18 09:48:10,0.0
-11248,-7816,-7116,20735,-6805,-1194,2024-01-18 09:48:10,0.0
-15648,-9696,-7432,16921,-9672,7060,2024-01-18 09:48:10,0.0
-6780,-8164,-11452,13117,-9030,12455,2024-01-18 09:48:10,0.0
-864,-7288,-14376,7842,-5058,12536,2024-01-18 09:48:10,0.0
2080,-5240,-15784,1311,304,10992,2024-01-18 09:48:10,0.0
2576,-4116,-15044,-5577,7284,8496,2024-01-18 09:48:10,0.0
904,-3620,-13732,-12373,13405,6713,2024-01-18 09:48:10,0.0
-596,-3396,-12332,-19297,18421,5841,2024-01-18 09:48:10,0.0
-4300,-3448,-11700,-25350,18501,6663,2024-01-18 09:48:10,0.0
-6428,-3408,-7624,-32768,15741,11487,2024-01-18 09:48:10,0.0
616,-4444,7736,-32768,14212,16322,2024-01-18 09:48:10,0.0
9428,-4316,24460,-32768,15549,17839,2024-01-18 09:48:10,0.0
20788,-3016,32767,-32768,10666,16901,2024-01-18 09:48:10,0.0
29520,584,32767,-28547,4701,13525,2024-01-18 09:48:10,0.0
32767,3892,32767,-19880,1014,8586,2024-01-18 09:48:10,0.0
32767,9804,32767,-13735,5105,4747,2024-01-18 09:48:10,0.0
29684,11000,32767,-6824,4541,1334,2024-01-18 09:48:10,0.0
22732,11028,32767,5694,-2325,-174,2024-01-18 09:48:10,0.0
21180,9668,32767,15642,-7007,-628,2024-01-18 09:48:10,0.0
21116,6472,32767,23459,-9211,-2257,2024-01-18 09:48:10,0.0
18692,2600,32767,28264,-10746,-4682,2024-01-18 09:48:10,0.0
16480,-780,25756,30105,-11981,-6732,2024-01-18 09:48:10,0.0
13840,-4584,15228,29950,-12742,-8546,2024-01-18 09:48:10,0.0
9828,-6784,5520,26433,-13145,-9305,2024-01-18 09:48:10,0.0
7356,-6436,92,21128,-12698,-9571,2024-01-18 09:48:10,0.0
5888,-6772,-2728,15428,-12348,-10095,2024-01-18 09:48:10,0.0
4936,-7176,-4060,9013,-9561,-11288,2024-01-18 09:48:11,0.0
2020,-8248,-4016,3227,-6767,-12864,2024-01-18 09:48:11,0.0
-3740,-8844,-3216,-439,-5654,-13540,2024-01-18 09:48:11,0.0
-10024,-8524,-2960,-2638,-6392,-11485,2024-01-18 09:48:11,0.0
-12224,-8496,-2364,-3918,-6359,-7036,2024-01-18 09:48:11,0.0
-9584,-7312,-1160,-4463,-3045,-2952,2024-01-18 09:48:11,0.0
-9288,-5460,-5512,-5850,773,-968,2024-01-18 09:48:11,0.0
-8736,-4448,-9544,-11341,4002,1681,2024-01-18 09:48:11,0.0
-6020,-3724,-9008,-18145,7445,4044,2024-01-18 09:48:11,0.0
-476,-3200,-3756,-24609,10143,4801,2024-01-18 09:48:11,0.0
1220,-3008,928,-27988,10038,4844,2024-01-18 09:48:11,0.0
2512,-2560,5820,-30181,9063,6184,2024-01-18 09:48:11,0.0
8112,-2280,13072,-31781,6583,7491,2024-01-18 09:48:11,0.0
13892,-2436,22960,-31914,6518,6298,2024-01-18 09:48:11,0.0
15308,-1320,28472,-32768,2058,5157,2024-01-18 09:48:11,0.0
17348,400,32767,-31683,-1377,5282,2024-01-18 09:48:11,0.0
21632,2856,32767,-25123,-3301,5037,2024-01-18 09:48:11,0.0
26296,6940,32767,-14138,-1435,3745,2024-01-18 09:48:11,
27716,10188,32767,-2382,3702,753,2024-01-18 09:48:11,0.0
23836,11192,32767,4736,4553,-1252,2024-01-18 09:48:11,0.0
22216,11000,32767,11127,902,-2654,2024-01-18 09:48:11,0.0
20200,10232,32767,16052,-3758,-4700,2024-01-18 09:48:11,0.0
17384,7932,29740,19370,-5459,-6508,2024-01-18 09:48:11,0.0
15596,5960,21776,20274,-4489,-8064,2024-01-18 09:48:11,0.0
14292,3920,14548,18020,-2193,-9749,2024-01-18 09:48:11,0.0
11728,2076,9944,13495,-294,-12019,2024-01-18 09:48:11,0.0
4960,-600,9216,8570,286,-13414,2024-01-18 09:48:11,0.0
-2060,-2996,10824,5624,42,-12254,2024-01-18 09:48:11,0.0
-8892,-5144,10980,4532,-1160,-9249,2024-01-18 09:48:11,0.0
-13324,-6096,8764,4219,-1751,-4651,2024-01-18 09:48:11,0.0
-13496,-6504,5400,3337,-840,-104,2024-01-18 09:48:11,0.0
-13048,-6248,2384,1516,1326,3554,2024-01-18 09:48:11,0.0
-12168,-6404,-252,-1256,2808,7098,2024-01-18 09:48:11,0.0
-9044,-6556,-1944,-4825,4355,9842,2024-01-18 09:48:11,0.0
-5228,-7896,-4656,-11054,7843,11655,2024-01-18 09:48:11,0.0
-4960,-9412,2508,-23783,17005,14187,2024-01-18 09:48:11,0.0
-6736,-10876,12972,-27666,18722,17649,2024-01-18 09:48:11,0.0
-3768,-9380,29308,-24907,11849,23507,2024-01-18 09:48:11,0.0
8324,-5804,32767,-12813,11066,26642,2024-01-18 09:48:11,0.0
18244,-1904,23496,-4974,13308,25349,2024-01-18 09:48:11,0.0
26164,2728,10064,-10026,13726,20148,2024-01-18 09:48:11,0.0
29364,3128,19852,-16214,8048,13181,2024-01-18 09:48:11,0.0
25064,2136,32767,-14592,-7610,5723,2024-01-18 09:48:11,0.0
17808,692,32767,-6421,-16565,1287,2024-01-18 09:48:11,0.0
13520,-652,32767,1158,-12813,566,2024-01-18 09:48:11,0.0
13392,-1260,32767,8473,-1416,510,2024-01-18 09:48:11,0.0
14200,-1908,32767,14269,2873,-803,2024-01-18 09:48:11,0.0
13468,-2944,32767,18961,299,-3272,2024-01-18 09:48:11,0.0
10716,-3896,25624,21216,-7011,-6265,2024-01-18 09:48:11,0.0
6868,-5032,18640,20365,-13153,-7536,2024-01-18 09:48:11,0.0
4484,-7108,16028,18219,-15022,-7257,2024-01-18 09:48:11,0.0
4520,-8356,15068,16796,-10126,-6367,2024-01-18 09:48:11,0.0
6120,-9156,12124,15566,-3449,-6008,2024-01-18 09:48:11,0.0
7400,-9856,7864,14005,1339,-6869,2024-01-18 09:48:11,0.0
6228,-11072,3496,11709,4373,-8328,2024-01-18 09:48:11,0.0
1592,-9256,-2464,7703,3863,-9348,2024-01-18 09:48:11,0.0
-6044,-8772,-3648,2534,118,-7660,2024-01-18 09:48:11,0.0
-10468,-9316,-892,-2101,-2565,-3009,2024-01-18 09:48:11,0.0
-9292,-9212,-200,-5666,-381,1701,2024-01-18 09:48:11,0.0
-5620,-7416,160,-11152,2431,5359,2024-01-18 09:48:11,0.0
396,-5776,7056,-15032,1609,6188,2024-01-18 09:48:11,0.0
2044,-4948,11932,-16372,-1988,6051,2024-01-18 09:48:12,0.0
3668,-5416,14152,-18024,-5155,7071,2024-01-18 09:48:12,0.0
6060,-7016,18900,-18935,-7747,8180,2024-01-18 09:48:12,0.0
9244,-6772,21528,-17898,-6881,8798,2024-01-18 09:48:12,0.0
12776,-7280,20216,-16627,-5340,8454,2024-01-18 09:48:13,0.0
16568,-7232,16504,-16076,-3623,6899,2024-01-18 09:48:13,0.0
19568,-7756,13800,-18015,-2869,3561,2024-01-18 09:48:13,0.0
19224,-8796,15252,-21051,-2540,-594,2024-01-18 09:48:13,0.0
13592,-9244,20408,-23243,-3014,-3213,2024-01-18 09:48:13,0.0
6024,-10364,27856,-22467,-3968,-1784,2024-01-18 09:48:13,0.0
2020,-9108,32767,-17346,-4852,2471,2024-01-18 09:48:13,0.0
6128,-7228,32767,-8900,-5250,6257,2024-01-18 09:48:13,0.0
10408,-4676,24516,-2792,-5372,6815,2024-01-18 09:48:14,0.0
-6304,-11476,-15140,-22813,7665,12560,2024-01-18 09:48:14,0.0
576,-11308,-14648,-29493,11414,12367,2024-01-18 09:48:14,0.0
4492,-10968,-11080,-32768,13155,10787,2024-01-18 09:48:14,0.0
6432,-9780,-2996,-32768,13591,9409,2024-01-18 09:48:14,0.0
8696,-6396,7804,-32768,13258,8726,2024-01-18 09:48:14,0.0
13448,-3952,25068,-32768,8650,8306,2024-01-18 09:48:14,0.0
26020,-616,32767,-32768,-1115,5976,2024-01-18 09:48:14,0.0
32764,5700,32767,-32768,-4488,-1504,2024-01-18 09:48:14,0.0
16644,13784,32767,-18413,1695,-888,2024-01-18 09:48:14,0.0
8564,16508,32767,1154,8432,7035,2024-01-18 09:48:14,0.0
23548,17296,32767,21815,8000,11623,2024-01-18 09:48:14,0.0
32767,12228,32767,32767,15,6596,2024-01-18 09:48:14,0.0
30664,4796,32767,32767,-5942,-352,2024-01-18 09:48:14,0.0
24964,-3188,32767,32767,-6259,-6038,2024-01-18 09:48:14,0.0
14592,-13376,22976,32767,-5305,-9755,2024-01-18 09:48:14,0.0
4852,-17800,8404,32767,-4328,-9834,2024-01-18 09:48:14,0.0
-108,-19044,-9088,32767,-6710,-8152,2024-01-18 09:48:14,0.0
-452,-17480,-21876,32767,-7231,-7815,2024-01-18 09:48:14,0.0
80,-16896,-25116,25522,-4148,-9277,2024-01-18 09:48:14,0.0
-2532,-16928,-27104,17867,-1050,-10942,2024-01-18 09:48:14,0.0
-6996,-16836,-30796,10457,-280,-10921,2024-01-18 09:48:14,0.0
-10936,-17104,-32768,2001,-1669,-9200,2024-01-18 09:48:14,0.0
-14512,-16516,-31956,-7143,-1683,-4993,2024-01-18 09:48:14,0.0
-11868,-15652,-27664,-15050,44,-798,2024-01-18 09:48:14,0.0
-7644,-15492,-24168,-22535,3255,2150,2024-01-18 09:48:14,0.0
-1964,-15632,-19836,-31443,6485,3604,2024-01-18 09:48:14,0.0
2716,-16456,-10456,-32768,7393,3572,2024-01-18 09:48:14,0.0
4788,-14404,720,-32768,6414,3373,2024-01-18 09:48:14,0.0
6492,-10712,15612,-32768,6592,3974,2024-01-18 09:48:14,0.0
9048,-76,32767,-32768,7793,4282,2024-01-18 09:48:14,0.0
13616,7276,32767,-32768,-517,2885,2024-01-18 09:48:14,0.0
17152,14980,32767,-32768,-11765,2213,2024-01-18 09:48:14,0.0
17220,21612,32767,-24247,-7285,2284,2024-01-18 09:48:14,0.0
12424,24908,32767,-1695,2198,5595,2024-01-18 09:48:14,0.0
19144,22852,32767,20498,3670,7667,2024-01-18 09:48:14,0.0
24756,17744,32767,32767,3917,5239,2024-01-18 09:48:14,0.0
23588,10800,32767,32767,933,776,2024-01-18 09:48:14,0.0
16672,2244,32767,32767,-4895,-3229,2024-01-18 09:48:14,0.0
9972,-6104,25000,32767,-9299,-5778,2024-01-18 09:48:14,0.0
2860,-12752,11228,32767,-14496,-6840,2024-01-18 09:48:14,0.0
-2704,-15160,-3260,32767,-16950,-6533,2024-01-18 09:48:14,0.0
-3172,-15372,-12656,32767,-13794,-6010,2024-01-18 09:48:14,0.0
-3472,-15084,-18988,25588,-9070,-6529,2024-01-18 09:48:14,0.0
-4396,-15428,-22944,15910,-5393,-7721,2024-01-18 09:48:14,
-9248,-15676,-23632,8316,-3876,-7547,2024-01-18 09:48:14,0.0
-12764,-15460,-23540,1406,-5269,-5596,2024-01-18 09:48:14,0.0
-14096,-15564,-22304,-5465,-3847,-2527,2024-01-18 09:48:14,0.0
-14256,-14212,-20400,-12047,317,1564,2024-01-18 09:48:14,0.0
-9544,-13628,-17812,-18163,4915,4728,2024-01-18 09:48:14,0.0
-5104,-12552,-14180,-23422,10194,6282,2024-01-18 09:48:14,0.0
-288,-12408,-11336,-28351,12033,6536,2024-01-18 09:48:14,0.0
4796,-12860,-8316,-32768,7735,5706,2024-01-18 09:48:14,0.0
7328,-13872,-2896,-32768,4071,4233,2024-01-18 09:48:14,0.0
6968,-14108,10120,-32768,9095,4793,2024-01-18 09:48:14,0.0
7420,-7672,28376,-32768,16075,5471,2024-01-18 09:48:14,0.0
9344,1012,32767,-32768,10313,4079,2024-01-18 09:48:14,0.0
8740,8976,32767,-32768,-2619,4433,2024-01-18 09:48:14,0.0
12164,14456,32767,-32768,-13570,7641,2024-01-18 09:48:14,0.0
19376,19836,32767,-20499,-9016,11044,2024-01-18 09:48:14,0.0
29916,23608,32767,6390,3486,10289,2024-01-18 09:48:15,0.0
28460,21532,32767,26555,5036,6419,2024-01-18 09:48:15,0.0
26640,15856,32767,32767,1704,2230,2024-01-18 09:48:15,0.0
22672,8236,32767,32767,-5302,-3592,2024-01-18 09:48:15,0.0
14540,1236,31920,32767,-9082,-8240,2024-01-18 09:48:15,0.0
8196,-5236,28880,32767,-8595,-10626,2024-01-18 09:48:15,0.0
2480,-10180,19440,32767,-7198,-11408,2024-01-18 09:48:15,0.0
-1216,-13556,5736,32767,-7093,-10615,2024-01-18 09:48:15,0.0
-3272,-13500,-7164,32767,-7988,-9324,2024-01-18 09:48:15,0.0
-2548,-13084,-14620,25045,-8865,-9052,2024-01-18 09:48:15,0.0
-4132,-13988,-15936,15881,-6817,-10321,2024-01-18 09:48:15,0.0
-9220,-15168,-14772,9357,-3176,-9808,2024-01-18 09:48:15,0.0
-14340,-15332,-15212,4641,-528,-7006,2024-01-18 09:48:15,0.0
-17544,-14160,-16976,266,881,-1906,2024-01-18 09:48:15,0.0
-16388,-13160,-18828,-4751,1920,4174,2024-01-18 09:48:15,0.0
-10812,-11484,-19900,-11136,2407,9795,2024-01-18 09:48:15,0.0
-716,-9860,-18296,-18751,3362,11875,2024-01-18 09:48:15,0.0
6748,-8984,-13772,-25603,4649,9724,2024-01-18 09:48:15,0.0
5544,-8592,-6940,-31543,5091,7003,2024-01-18 09:48:15,0.0
4004,-8196,680,-32768,5097,7230,2024-01-18 09:48:15,0.0
5844,-6896,9748,-32768,5306,8393,2024-01-18 09:48:15,0.0
10916,-3660,23104,-32768,6550,8754,2024-01-18 09:48:15,0.0
17180,488,32767,-32768,5048,6600,2024-01-18 09:48:15,0.0
15432,5576,32767,-32768,-464,4431,2024-01-18 09:48:15,0.0
15248,11712,32767,-27147,-1066,6102,2024-01-18 09:48:15,0.0
20220,17188,32767,-13192,3306,6492,2024-01-18 09:48:15,0.0
21708,19616,32767,4076,4755,5286,2024-01-18 09:48:15,0.0
20980,18972,32767,15307,3502,4371,2024-01-18 09:48:15,0.0
23552,15260,32767,22425,2466,2209,2024-01-18 09:48:15,0.0
23900,10464,32767,25003,2307,-1922,2024-01-18 09:48:15,0.0
18944,4976,32767,27281,1518,-5689,2024-01-18 09:48:15,0.0
11140,-860,32767,32392,-449,-7394,2024-01-18 09:48:15,0.0
3804,-6804,28824,32767,-4597,-6866,2024-01-18 09:48:15,0.0
1848,-10152,15200,32767,-7504,-5581,2024-01-18 09:48:15,0.0
964,-10504,-3576,32767,-10392,-4596,2024-01-18 09:48:15,0.0
1532,-9848,-11452,29230,-10338,-5208,2024-01-18 09:48:15,0.0
1000,-8996,-14432,22059,-6622,-6274,2024-01-18 09:48:15,0.0
-1472,-9452,-15644,14985,-2843,-7242,2024-01-18 09:48:15,0.0
-6524,-10172,-16316,8891,-1234,-6418,2024-01-18 09:48:15,0.0
-10308,-10360,-17932,4012,-2923,-3631,2024-01-18 09:48:15,0.0
-11120,-9476,-20124,-2258,-2092,169,2024-01-18 09:48:15,0.0
-10004,-8804,-20024,-10093,2092,3950,2024-01-18 09:48:15,0.0
-7052,-8248,-16916,-16853,4567,6741,2024-01-18 09:48:15,0.0
-1924,-7572,-12228,-23120,6132,8247,2024-01-18 09:48:15,0.0
1616,-6264,-6920,-27491,5798,8194,2024-01-18 09:48:15,0.0
4420,-4768,-2140,-30827,4094,7898,2024-01-18 09:48:15,0.0
5552,-2360,5672,-32768,3606,7932,2024-01-18 09:48:15,0.0
9652,-1384,18772,-32768,3897,8634,2024-01-18 09:48:15,0.0
15452,504,32767,-32768,3284,8442,2024-01-18 09:48:16,0.0
21628,3556,32767,-32768,365,6603,2024-01-18 09:48:16,0.0
24020,8928,32767,-23893,-5000,3833,2024-01-18 09:48:16,0.0
20164,14004,32767,-10319,-1454,2378,2024-01-18 09:48:16,0.0
16000,16480,32767,167,7241,3747,2024-01-18 09:48:16,0.0
17512,16812,32767,8485,11300,4780,2024-01-18 09:48:16,0.0
19464,15292,32767,16908,8201,3781,2024-01-18 09:48:16,0.0
20216,11532,32767,24491,1042,1242,2024-01-18 09:48:16,0.0
17996,6840,32767,29728,-3298,-1441,2024-01-18 09:48:16,0.0
-5924,-8436,-27104,5478,-1214,-890,2024-01-18 09:48:16,0.0
-6688,-8188,-27056,-2982,2152,160,2024-01-18 09:48:16,0.0
-7896,-8052,-24744,-10194,2096,2013,2024-01-18 09:48:16,0.0
-6672,-8604,-19932,-15959,-522,3955,2024-01-18 09:48:16,0.0
-5852,-8548,-15284,-20313,-1117,5720,2024-01-18 09:48:16,0.0
-3328,-8768,-10552,-23377,-826,6854,2024-01-18 09:48:16,0.0
-1580,-8880,-10336,-27648,2432,7933,2024-01-18 09:48:16,0.0
1484,-9556,-5960,-32768,6793,8419,2024-01-18 09:48:16,0.0
4328,-9700,1148,-32768,9583,8687,2024-01-18 09:48:16,0.0
6416,-9312,10968,-32768,11243,8652,2024-01-18 09:48:16,0.0
10556,-9836,31428,-32768,6465,8559,2024-01-18 09:48:16,0.0
16732,-7388,32767,-32768,-2237,7822,2024-01-18 09:48:16,0.0
24680,-436,32767,-29342,-6227,5347,2024-01-18 09:48:16,0.0
23468,7972,32767,-12542,3660,2878,2024-01-18 09:48:16,0.0
20864,12476,32767,-1899,16227,2625,2024-01-18 09:48:16,0.0
21052,14576,32767,5387,20665,2223,2024-01-18 09:48:16,0.0
22256,13996,32767,14513,15636,190,2024-01-18 09:48:16,0.0
21952,11368,32767,21026,5089,-3315,2024-01-18 09:48:16,0.0
21160,8748,27668,22659,-62,-6795,2024-01-18 09:48:16,0.0
18192,5636,19680,22236,-456,-10487,2024-01-18 09:48:16,0.0
14700,2588,13824,19774,3346,-13715,2024-01-18 09:48:16,0.0
9196,-132,11956,17236,6863,-15739,2024-01-18 09:48:16,0.0
3148,-2600,11956,16783,6260,-15469,2024-01-18 09:48:16,0.0
-80,-4996,10148,18711,1475,-13536,2024-01-18 09:48:16,0.0
-296,-6248,4120,20548,-4000,-11981,2024-01-18 09:48:16,0.0
456,-6072,-5596,19073,-7606,-10698,2024-01-18 09:48:16,0.0
1644,-6228,-12104,14427,-10749,-10314,2024-01-18 09:48:16,0.0
1524,-6380,-14984,8931,-14713,-10146,2024-01-18 09:48:16,
1112,-6944,-16984,3203,-19262,-9726,2024-01-18 09:48:16,0.0
2504,-7864,-20240,-5050,-21765,-9178,2024-01-18 09:48:16,0.0
5692,-9284,-21360,-16964,-18793,-9321,2024-01-18 09:48:16,0.0
7364,-12416,-14832,-29957,-10016,-9923,2024-01-18 09:48:16,0.0
9040,-14152,-3752,-32768,-3281,-10850,2024-01-18 09:48:17,0.0
9804,-15248,8496,-32768,-451,-12009,2024-01-18 09:48:17,0.0
13200,-14700,17908,-32768,1137,-13468,2024-01-18 09:48:17,0.0
18768,-14024,20816,-32768,6086,-17406,2024-01-18 09:48:17,0.0
20756,-13936,18072,-32768,10108,-23401,2024-01-18 09:48:17,0.0
19008,-15664,16468,-32768,9617,-29665,2024-01-18 09:48:17,0.0
14364,-19568,23212,-32768,774,-32768,2024-01-18 09:48:17,0.0
10324,-21164,32767,-32768,-8832,-32768,2024-01-18 09:48:17,0.0
10456,-20440,32767,-32768,-13542,-32768,2024-01-18 09:48:17,0.0
12920,-18532,32767,-28506,-4008,-32467,2024-01-18 09:48:17,0.0
-4880,-14444,19628,26532,-3896,-32768,2024-01-18 09:48:17,0.0
-5680,-13524,13648,26232,-7064,-32768,2024-01-18 09:48:17,0.0
-5736,-11884,7820,22727,-8185,-30150,2024-01-18 09:48:17,0.0
-6212,-10532,5068,16532,-5109,-27948,2024-01-18 09:48:17,0.0
-8904,-8868,5348,10303,1057,-24307,2024-01-18 09:48:17,0.0
-10012,-6976,9108,6990,3609,-20325,2024-01-18 09:48:17,0.0
-9752,-5164,13784,6711,1607,-16483,2024-01-18 09:48:17,0.0
-7724,-2920,15780,8897,-1937,-13278,2024-01-18 09:48:17,0.0
-7000,-992,12688,9842,-5986,-11165,2024-01-18 09:48:17,0.0
-5336,1196,10604,7939,-8106,-9123,2024-01-18 09:48:17,0.0
-2944,2888,11092,4730,-5134,-7544,2024-01-18 09:48:17,0.0
-932,3804,13404,1544,-31,-6488,2024-01-18 09:48:17,0.0
-1700,4636,16228,820,3147,-5419,2024-01-18 09:48:17,0.0
-3436,5136,16880,1839,2983,-3113,2024-01-18 09:48:17,0.0
-3004,5852,16636,3262,-78,-558,2024-01-18 09:48:17,0.0
200,6524,16260,4179,-2193,859,2024-01-18 09:48:17,0.0
2000,6668,15528,4395,-2229,614,2024-01-18 09:48:17,0.0
2504,6960,14996,4144,-1210,-124,2024-01-18 09:48:17,0.0
1712,6644,14712,3630,-404,-731,2024-01-18 09:48:17,0.0
1196,6504,14532,2989,414,-700,2024-01-18 09:48:17,0.0
1144,6216,13852,2249,527,-815,2024-01-18 09:48:17,0.0
1520,6244,12556,1056,391,-1187,2024-01-18 09:48:17,0.0
3228,6124,12744,-796,1184,-2242,2024-01-18 09:48:17,0.0
2576,5776,14808,-2257,1799,-4309,2024-01-18 09:48:17,0.0
-1240,5340,16152,-2747,1546,-4347,2024-01-18 09:48:17,0.0
-3352,5488,16788,-2940,1125,-2495,2024-01-18 09:48:17,0.0
-3684,5732,17640,-2920,520,-54,2024-01-18 09:48:17,0.0
-2352,6196,17820,-2690,47,2378,2024-01-18 09:48:17,0.0
1620,6948,19364,-2437,-798,3693,2024-01-18 09:48:17,0.0
5856,7796,21732,-850,-1242,2899,2024-01-18 09:48:17,0.0
7368,8216,20412,1524,-587,550,2024-01-18 09:48:17,0.0
5156,8728,16356,2115,-72,-1177,2024-01-18 09:48:17,0.0
2980,8720,14144,918,47,-1395,2024-01-18 09:48:17,0.0
3432,8460,16264,-1393,1019,-617,2024-01-18 09:48:17,0.0
4324,8432,17568,-1001,-72,-803,2024-01-18 09:48:17,0.0
4892,8052,18196,-140,-1227,-1595,2024-01-18 09:48:17,0.0
4552,8016,17292,411,-1886,-2312,2024-01-18 09:48:17,0.0
3584,7680,16068,-140,-1699,-2787,2024-01-18 09:48:17,0.0
2356,7292,15980,-1189,-535,-2744,2024-01-18 09:48:17,0.0
1604,7096,15764,-2129,591,-2199,2024-01-18 09:48:17,0.0
1392,6892,16692,-2768,109,-1373,2024-01-18 09:48:18,0.0
1840,7212,18376,-2349,-1239,-741,2024-01-18 09:48:18,0.0
2424,7244,19052,-828,-2056,-299,2024-01-18 09:48:18,0.0
2772,7712,16932,-118,-2442,-107,2024-01-18 09:48:18,0.0
3376,7908,16080,-809,-1853,-67,2024-01-18 09:48:18,0.0
3676,8288,17012,-1557,-704,-162,2024-01-18 09:48:18,0.0
2896,8068,18432,-1452,-366,-359,2024-01-18 09:48:18,0.0
3132,7408,18156,-1052,725,-60,2024-01-18 09:48:18,0.0
2400,7796,18456,-609,761,365,2024-01-18 09:48:18,0.0
2532,7808,18356,366,-147,700,2024-01-18 09:48:18,0.0
3324,7872,17376,908,-524,668,2024-01-18 09:48:18,0.0
5068,8136,16928,978,-389,194,2024-01-18 09:48:18,0.0
5560,7996,16680,975,-177,-1160,2024-01-18 09:48:18,0.0
4340,7804,16000,758,-395,-2250,2024-01-18 09:48:18,0.0
3340,7148,15336,329,-914,-2553,2024-01-18 09:48:18,0.0
3404,6768,15192,-375,-1741,-2543,2024-01-18 09:48:18,0.0
3636,6352,15300,-1512,-2422,-2667,2024-01-18 09:48:18,0.0
4052,5788,16092,-2599,-2305,-2792,2024-01-18 09:48:18,0.0
3920,5324,17028,-3205,-1764,-2973,2024-01-18 09:48:18,0.0
3228,5036,17852,-3244,-1300,-2804,2024-01-18 09:48:18,0.0
2920,4832,17472,-2914,-935,-2231,2024-01-18 09:48:18,0.0
2468,4688,16132,-2586,-663,-1276,2024-01-18 09:48:18,0.0
2968,4572,14464,-2708,-807,-309,2024-01-18 09:48:18,0.0
3640,4488,13328,-3283,-1318,218,2024-01-18 09:48:18,0.0
4788,4452,12720,-4080,-1492,298,2024-01-18 09:48:19,0.0
-21968,-12524,-5148,-12487,4850,24096,2024-01-18 09:48:19,0.0
-18840,-13020,-4764,-17201,7784,30061,2024-01-18 09:48:19,0.0
-13132,-13828,-3856,-22859,11407,32767,2024-01-18 09:48:19,0.0
-7804,-15296,-1712,-30881,17010,32767,2024-01-18 09:48:19,0.0
-4392,-16376,4168,-32768,19924,32767,2024-01-18 09:48:19,0.0
-444,-17160,12664,-32768,21191,32767,2024-01-18 09:48:19,0.0
4380,-17280,20272,-32768,20445,32767,2024-01-18 09:48:19,0.0
11924,-15596,27440,-32768,18940,32767,2024-01-18 09:48:19,0.0
9288,-13120,28080,-32768,13350,32637,2024-01-18 09:48:19,0.0
11016,-13664,32767,-32768,13278,32767,2024-01-18 09:48:19,0.0
17976,-12008,32767,-32768,13398,32767,2024-01-18 09:48:19,0.0
24860,-7144,32767,-31744,13997,29091,2024-01-18 09:48:19,0.0
24528,-2032,32767,-20874,13048,25985,2024-01-18 09:48:19,0.0
24220,1488,32767,-12849,12539,25447,2024-01-18 09:48:19,0.0
28584,4256,32767,-5817,11986,24525,2024-01-18 09:48:19,0.0
32767,7076,32767,268,10062,19642,2024-01-18 09:48:19,0.0
32767,9348,32767,3377,6981,11888,2024-01-18 09:48:19,0.0
32767,9904,32767,4626,5326,5889,2024-01-18 09:48:19,0.0
29284,9380,32767,7657,5398,648,2024-01-18 09:48:19,0.0
23000,6924,32767,11976,4990,-3249,2024-01-18 09:48:19,0.0
18648,4780,32568,14407,2917,-5101,2024-01-18 09:48:19,
14776,3436,30608,16223,-125,-6635,2024-01-18 09:48:19,0.0
11200,2672,28236,18581,-2115,-7730,2024-01-18 09:48:19,0.0
8320,2152,23476,20376,-2448,-8568,2024-01-18 09:48:19,0.0
4984,1316,17572,20625,-2728,-9595,2024-01-18 09:48:19,0.0
444,1344,12200,19417,-1091,-9910,2024-01-18 09:48:19,0.0
-5576,672,8692,17235,505,-8610,2024-01-18 09:48:19,0.0
-10420,92,6440,14446,2249,-5319,2024-01-18 09:48:19,0.0
-12824,604,4220,11093,5390,-1133,2024-01-18 09:48:19,0.0
-13732,876,4112,7989,8942,2904,2024-01-18 09:48:19,0.0
-13756,1152,3024,5350,13544,6699,2024-01-18 09:48:19,0.0
-6628,4880,17232,7246,-29094,6660,2024-01-18 09:48:19,0.0
-5136,5004,15688,9986,-32768,7584,2024-01-18 09:48:19,0.0
-4496,4920,13096,12523,-32768,8598,2024-01-18 09:48:19,0.0
-3156,4876,8868,14076,-32768,9768,2024-01-18 09:48:19,0.0
-992,4620,6192,14171,-32768,10214,2024-01-18 09:48:19,0.0
84,3600,5572,13426,-32768,11677,2024-01-18 09:48:19,0.0
1808,2892,6668,13584,-32768,13405,2024-01-18 09:48:19,0.0
4176,2584,8200,15017,-32768,15023,2024-01-18 09:48:19,0.0
8684,1964,6352,15266,-32768,15855,2024-01-18 09:48:19,0.0
12876,2108,3504,12070,-32768,15507,2024-01-18 09:48:19,0.0
17080,1736,2176,5902,-32768,14497,2024-01-18 09:48:19,0.0
17184,1624,4268,-2248,-19530,13690,2024-01-18 09:48:20,0.0
16040,928,8608,-7945,897,14461,2024-01-18 09:48:20,0.0
17568,316,11660,-10687,12667,15681,2024-01-18 09:48:20,0.0
20708,504,14136,-11430,17185,15500,2024-01-18 09:48:20,0.0
22824,872,14256,-10972,16752,13345,2024-01-18 09:48:20,0.0
23544,1616,13568,-11123,14811,10734,2024-01-18 09:48:20,0.0
22708,1832,13068,-11589,12689,8397,2024-01-18 09:48:20,0.0
21288,2124,13524,-11784,9899,6268,2024-01-18 09:48:20,0.0
20084,2132,14188,-11476,6861,4607,2024-01-18 09:48:20,0.0
18712,2136,15176,-10418,3808,3390,2024-01-18 09:48:20,0.0
17504,2080,15444,-9107,1069,2809,2024-01-18 09:48:20,0.0
16828,2076,14788,-8397,-625,2556,2024-01-18 09:48:20,0.0
16788,1908,14732,-8272,-1400,2508,2024-01-18 09:48:20,0.0
18628,2324,15408,-8639,501,2276,2024-01-18 09:48:20,0.0
19700,2232,15992,-9026,3677,1036,2024-01-18 09:48:20,0.0
19156,2256,16200,-9337,5797,-302,2024-01-18 09:48:20,0.0
17308,2088,17720,-9114,5808,-784,2024-01-18 09:48:20,0.0
15868,2296,19260,-6717,4403,-427,2024-01-18 09:48:20,0.0
15484,2708,19616,-3460,2197,132,2024-01-18 09:48:20,0.0
15196,2972,18104,-91,93,508,2024-01-18 09:48:20,0.0
15196,3428,15644,1644,-537,488,2024-01-18 09:48:20,0.0
14984,3736,12988,1692,1027,633,2024-01-18 09:48:20,0.0
15272,4208,11484,268,3395,888,2024-01-18 09:48:20,0.0
15460,4784,12884,-1244,5863,1155,2024-01-18 09:48:20,0.0
17100,3160,14424,-1463,7647,201,2024-01-18 09:48:20,0.0
15820,3684,17148,-450,6298,-1134,2024-01-18 09:48:20,0.0
14244,3812,17956,1811,2729,-1214,2024-01-18 09:48:20,0.0
14364,3116,16808,4031,1289,-714,2024-01-18 09:48:20,0.0
